run_id;condition;success;timeout;failed_images;failed_audio;failed_video;trial_type;trial_index;time_elapsed;internal_node_id;rt;stimulus;key_press;view_history;correct;image_click;points;sd;points2;total_earn;recorded_at;ip;user_agent;device;browser;browser_version;platform;platform_version
141;1;TRUE;FALSE;"""";"""";"""";preload;0;355;0.0-0.0;"""";"""";"""";"""";"""";"""";"""";"""";"""";"""";06/07/2021 09:49;93.105.177.91;Mozilla/5.0 (Windows NT 10.0;;;;;
141;1;"""";"""";"""";"""";"""";html-keyboard-response;1;5801;0.0-1.0;5443;<font size=15>Welcome to our experiment!</font><br><br><br><i> Press space bar to begin.</i>;32;"""";"""";"""";"""";"""";"""";"""";06/07/2021 09:49;93.105.177.91;Mozilla/5.0 (Windows NT 10.0;;;;;
141;1;TRUE;"""";"""";"""";"""";fullscreen;2;45394;0.0-2.0;"""";"""";"""";"""";"""";"""";"""";"""";"""";"""";06/07/2021 09:49;93.105.177.91;Mozilla/5.0 (Windows NT 10.0;;;;;
141;1;"""";"""";"""";"""";"""";multikey-instructions;3;877779;0.0-3.0;832383;"""";"""";"[{""page_index"":0,""viewing_time"":523463},{""page_index"":1,""viewing_time"":114678},{""page_index"":0,""viewing_time"":4266},{""page_index"":1,""viewing_time"":882},{""page_index"":2,""viewing_time"":31178},{""page_index"":3,""viewing_time"":47279},{""page_index"":4,""viewing_time"":5693},{""page_index"":5,""viewing_time"":4089},{""page_index"":6,""viewing_time"":8103},{""page_index"":7,""viewing_time"":2315},{""page_index"":8,""viewing_time"":35776},{""page_index"":9,""viewing_time"":19606},{""page_index"":10,""viewing_time"":24321},{""page_index"":11,""viewing_time"":10734}]";"""";"""";"""";"""";"""";"""";06/07/2021 09:49;93.105.177.91;Mozilla/5.0 (Windows NT 10.0;;;;;
141;1;"""";"""";"""";"""";"""";sampler;4;904084;0.0-4.0-0.0;25889;img/Cobalt.png;"""";"""";FALSE;-1;3.992.768.504.033.000;5;"""";"""";06/07/2021 09:49;93.105.177.91;Mozilla/5.0 (Windows NT 10.0;;;;;
141;1;"""";"""";"""";"""";"""";sampler;5;910124;0.0-4.0-1.0;5635;img/Cobalt.png;"""";"""";FALSE;-1;811.385.970.846.928;5;"""";"""";06/07/2021 09:49;93.105.177.91;Mozilla/5.0 (Windows NT 10.0;;;;;
141;1;"""";"""";"""";"""";"""";sampler;6;910124;0.0-4.0-2.0;"""";"""";"""";"""";"""";"""";"""";"""";"""";"""";06/07/2021 09:49;93.105.177.91;Mozilla/5.0 (Windows NT 10.0;;;;;
141;1;"""";"""";"""";"""";"""";sampler;7;910125;0.0-4.0-3.0;"""";"""";"""";"""";"""";"""";"""";"""";"""";"""";06/07/2021 09:49;93.105.177.91;Mozilla/5.0 (Windows NT 10.0;;;;;
141;1;"""";"""";"""";"""";"""";sampler;8;910125;0.0-4.0-4.0;"""";"""";"""";"""";"""";"""";"""";"""";"""";"""";06/07/2021 09:49;93.105.177.91;Mozilla/5.0 (Windows NT 10.0;;;;;
141;1;"""";"""";"""";"""";"""";sampler;9;910126;0.0-4.0-5.0;"""";"""";"""";"""";"""";"""";"""";"""";"""";"""";06/07/2021 09:49;93.105.177.91;Mozilla/5.0 (Windows NT 10.0;;;;;
141;1;"""";"""";"""";"""";"""";sampler;10;910126;0.0-4.0-6.0;"""";"""";"""";"""";"""";"""";"""";"""";"""";"""";06/07/2021 09:49;93.105.177.91;Mozilla/5.0 (Windows NT 10.0;;;;;
141;1;"""";"""";"""";"""";"""";sampler;11;910126;0.0-4.0-7.0;"""";"""";"""";"""";"""";"""";"""";"""";"""";"""";06/07/2021 09:49;93.105.177.91;Mozilla/5.0 (Windows NT 10.0;;;;;
141;1;"""";"""";"""";"""";"""";sampler;12;910126;0.0-4.0-8.0;"""";"""";"""";"""";"""";"""";"""";"""";"""";"""";06/07/2021 09:49;93.105.177.91;Mozilla/5.0 (Windows NT 10.0;;;;;
141;1;"""";"""";"""";"""";"""";sampler;13;910126;0.0-4.0-9.0;"""";"""";"""";"""";"""";"""";"""";"""";"""";"""";06/07/2021 09:49;93.105.177.91;Mozilla/5.0 (Windows NT 10.0;;;;;
141;1;"""";"""";"""";"""";"""";sampler;14;910126;0.0-4.0-10.0;"""";"""";"""";"""";"""";"""";"""";"""";"""";"""";06/07/2021 09:49;93.105.177.91;Mozilla/5.0 (Windows NT 10.0;;;;;
141;1;"""";"""";"""";"""";"""";sampler;15;910126;0.0-4.0-11.0;"""";"""";"""";"""";"""";"""";"""";"""";"""";"""";06/07/2021 09:49;93.105.177.91;Mozilla/5.0 (Windows NT 10.0;;;;;
141;1;"""";"""";"""";"""";"""";sampler;16;910127;0.0-4.0-12.0;"""";"""";"""";"""";"""";"""";"""";"""";"""";"""";06/07/2021 09:49;93.105.177.91;Mozilla/5.0 (Windows NT 10.0;;;;;
141;1;"""";"""";"""";"""";"""";sampler;17;910127;0.0-4.0-13.0;"""";"""";"""";"""";"""";"""";"""";"""";"""";"""";06/07/2021 09:49;93.105.177.91;Mozilla/5.0 (Windows NT 10.0;;;;;
141;1;"""";"""";"""";"""";"""";sampler;18;910127;0.0-4.0-14.0;"""";"""";"""";"""";"""";"""";"""";"""";"""";"""";06/07/2021 09:49;93.105.177.91;Mozilla/5.0 (Windows NT 10.0;;;;;
141;1;"""";"""";"""";"""";"""";sampler;19;910127;0.0-4.0-15.0;"""";"""";"""";"""";"""";"""";"""";"""";"""";"""";06/07/2021 09:49;93.105.177.91;Mozilla/5.0 (Windows NT 10.0;;;;;
141;1;"""";"""";"""";"""";"""";sampler;20;910127;0.0-4.0-16.0;"""";"""";"""";"""";"""";"""";"""";"""";"""";"""";06/07/2021 09:49;93.105.177.91;Mozilla/5.0 (Windows NT 10.0;;;;;
141;1;"""";"""";"""";"""";"""";sampler;21;910127;0.0-4.0-17.0;"""";"""";"""";"""";"""";"""";"""";"""";"""";"""";06/07/2021 09:49;93.105.177.91;Mozilla/5.0 (Windows NT 10.0;;;;;
141;1;"""";"""";"""";"""";"""";sampler;22;910128;0.0-4.0-18.0;"""";"""";"""";"""";"""";"""";"""";"""";"""";"""";06/07/2021 09:49;93.105.177.91;Mozilla/5.0 (Windows NT 10.0;;;;;
141;1;"""";"""";"""";"""";"""";sampler;23;910128;0.0-4.0-19.0;"""";"""";"""";"""";"""";"""";"""";"""";"""";"""";06/07/2021 09:49;93.105.177.91;Mozilla/5.0 (Windows NT 10.0;;;;;
141;1;"""";"""";"""";"""";"""";sampler;24;910128;0.0-4.0-20.0;"""";"""";"""";"""";"""";"""";"""";"""";"""";"""";06/07/2021 09:49;93.105.177.91;Mozilla/5.0 (Windows NT 10.0;;;;;
141;1;"""";"""";"""";"""";"""";sampler;25;910128;0.0-4.0-21.0;"""";"""";"""";"""";"""";"""";"""";"""";"""";"""";06/07/2021 09:49;93.105.177.91;Mozilla/5.0 (Windows NT 10.0;;;;;
141;1;"""";"""";"""";"""";"""";sampler;26;910128;0.0-4.0-22.0;"""";"""";"""";"""";"""";"""";"""";"""";"""";"""";06/07/2021 09:49;93.105.177.91;Mozilla/5.0 (Windows NT 10.0;;;;;
141;1;"""";"""";"""";"""";"""";sampler;27;910128;0.0-4.0-23.0;"""";"""";"""";"""";"""";"""";"""";"""";"""";"""";06/07/2021 09:49;93.105.177.91;Mozilla/5.0 (Windows NT 10.0;;;;;
141;1;"""";"""";"""";"""";"""";sampler;28;910128;0.0-4.0-24.0;"""";"""";"""";"""";"""";"""";"""";"""";"""";"""";06/07/2021 09:49;93.105.177.91;Mozilla/5.0 (Windows NT 10.0;;;;;
141;1;"""";"""";"""";"""";"""";sampler;29;910128;0.0-4.0-25.0;"""";"""";"""";"""";"""";"""";"""";"""";"""";"""";06/07/2021 09:49;93.105.177.91;Mozilla/5.0 (Windows NT 10.0;;;;;
141;1;"""";"""";"""";"""";"""";sampler;30;910129;0.0-4.0-26.0;"""";"""";"""";"""";"""";"""";"""";"""";"""";"""";06/07/2021 09:49;93.105.177.91;Mozilla/5.0 (Windows NT 10.0;;;;;
141;1;"""";"""";"""";"""";"""";sampler;31;910129;0.0-4.0-27.0;"""";"""";"""";"""";"""";"""";"""";"""";"""";"""";06/07/2021 09:49;93.105.177.91;Mozilla/5.0 (Windows NT 10.0;;;;;
141;1;"""";"""";"""";"""";"""";sampler;32;910129;0.0-4.0-28.0;"""";"""";"""";"""";"""";"""";"""";"""";"""";"""";06/07/2021 09:49;93.105.177.91;Mozilla/5.0 (Windows NT 10.0;;;;;
141;1;"""";"""";"""";"""";"""";sampler;33;910129;0.0-4.0-29.0;"""";"""";"""";"""";"""";"""";"""";"""";"""";"""";06/07/2021 09:49;93.105.177.91;Mozilla/5.0 (Windows NT 10.0;;;;;
141;1;"""";"""";"""";"""";"""";sampler;34;910129;0.0-4.0-30.0;"""";"""";"""";"""";"""";"""";"""";"""";"""";"""";06/07/2021 09:49;93.105.177.91;Mozilla/5.0 (Windows NT 10.0;;;;;
141;1;"""";"""";"""";"""";"""";sampler;35;910129;0.0-4.0-31.0;"""";"""";"""";"""";"""";"""";"""";"""";"""";"""";06/07/2021 09:49;93.105.177.91;Mozilla/5.0 (Windows NT 10.0;;;;;
141;1;"""";"""";"""";"""";"""";sampler;36;910129;0.0-4.0-32.0;"""";"""";"""";"""";"""";"""";"""";"""";"""";"""";06/07/2021 09:49;93.105.177.91;Mozilla/5.0 (Windows NT 10.0;;;;;
141;1;"""";"""";"""";"""";"""";sampler;37;910129;0.0-4.0-33.0;"""";"""";"""";"""";"""";"""";"""";"""";"""";"""";06/07/2021 09:49;93.105.177.91;Mozilla/5.0 (Windows NT 10.0;;;;;
141;1;"""";"""";"""";"""";"""";sampler;38;910130;0.0-4.0-34.0;"""";"""";"""";"""";"""";"""";"""";"""";"""";"""";06/07/2021 09:49;93.105.177.91;Mozilla/5.0 (Windows NT 10.0;;;;;
141;1;"""";"""";"""";"""";"""";sampler;39;910130;0.0-4.0-35.0;"""";"""";"""";"""";"""";"""";"""";"""";"""";"""";06/07/2021 09:49;93.105.177.91;Mozilla/5.0 (Windows NT 10.0;;;;;
141;1;"""";"""";"""";"""";"""";sampler;40;910130;0.0-4.0-36.0;"""";"""";"""";"""";"""";"""";"""";"""";"""";"""";06/07/2021 09:49;93.105.177.91;Mozilla/5.0 (Windows NT 10.0;;;;;
141;1;"""";"""";"""";"""";"""";sampler;41;910130;0.0-4.0-37.0;"""";"""";"""";"""";"""";"""";"""";"""";"""";"""";06/07/2021 09:49;93.105.177.91;Mozilla/5.0 (Windows NT 10.0;;;;;
141;1;"""";"""";"""";"""";"""";sampler;42;910130;0.0-4.0-38.0;"""";"""";"""";"""";"""";"""";"""";"""";"""";"""";06/07/2021 09:49;93.105.177.91;Mozilla/5.0 (Windows NT 10.0;;;;;
141;1;"""";"""";"""";"""";"""";sampler;43;910130;0.0-4.0-39.0;"""";"""";"""";"""";"""";"""";"""";"""";"""";"""";06/07/2021 09:49;93.105.177.91;Mozilla/5.0 (Windows NT 10.0;;;;;
141;1;"""";"""";"""";"""";"""";sampler;44;910130;0.0-4.0-40.0;"""";"""";"""";"""";"""";"""";"""";"""";"""";"""";06/07/2021 09:49;93.105.177.91;Mozilla/5.0 (Windows NT 10.0;;;;;
141;1;"""";"""";"""";"""";"""";sampler;45;910130;0.0-4.0-41.0;"""";"""";"""";"""";"""";"""";"""";"""";"""";"""";06/07/2021 09:49;93.105.177.91;Mozilla/5.0 (Windows NT 10.0;;;;;
141;1;"""";"""";"""";"""";"""";sampler;46;910130;0.0-4.0-42.0;"""";"""";"""";"""";"""";"""";"""";"""";"""";"""";06/07/2021 09:49;93.105.177.91;Mozilla/5.0 (Windows NT 10.0;;;;;
141;1;"""";"""";"""";"""";"""";sampler;47;910131;0.0-4.0-43.0;"""";"""";"""";"""";"""";"""";"""";"""";"""";"""";06/07/2021 09:49;93.105.177.91;Mozilla/5.0 (Windows NT 10.0;;;;;
141;1;"""";"""";"""";"""";"""";sampler;48;910131;0.0-4.0-44.0;"""";"""";"""";"""";"""";"""";"""";"""";"""";"""";06/07/2021 09:49;93.105.177.91;Mozilla/5.0 (Windows NT 10.0;;;;;
141;1;"""";"""";"""";"""";"""";sampler;49;910131;0.0-4.0-45.0;"""";"""";"""";"""";"""";"""";"""";"""";"""";"""";06/07/2021 09:49;93.105.177.91;Mozilla/5.0 (Windows NT 10.0;;;;;
141;1;"""";"""";"""";"""";"""";sampler;50;910131;0.0-4.0-46.0;"""";"""";"""";"""";"""";"""";"""";"""";"""";"""";06/07/2021 09:49;93.105.177.91;Mozilla/5.0 (Windows NT 10.0;;;;;
141;1;"""";"""";"""";"""";"""";sampler;51;910131;0.0-4.0-47.0;"""";"""";"""";"""";"""";"""";"""";"""";"""";"""";06/07/2021 09:49;93.105.177.91;Mozilla/5.0 (Windows NT 10.0;;;;;
141;1;"""";"""";"""";"""";"""";sampler;52;910131;0.0-4.0-48.0;"""";"""";"""";"""";"""";"""";"""";"""";"""";"""";06/07/2021 09:49;93.105.177.91;Mozilla/5.0 (Windows NT 10.0;;;;;
141;1;"""";"""";"""";"""";"""";sampler;53;910131;0.0-4.0-49.0;"""";"""";"""";"""";"""";"""";"""";"""";"""";"""";06/07/2021 09:49;93.105.177.91;Mozilla/5.0 (Windows NT 10.0;;;;;
141;1;"""";"""";"""";"""";"""";sampler;54;910131;0.0-4.0-50.0;"""";"""";"""";"""";"""";"""";"""";"""";"""";"""";06/07/2021 09:49;93.105.177.91;Mozilla/5.0 (Windows NT 10.0;;;;;
141;1;"""";"""";"""";"""";"""";sampler;55;910132;0.0-4.0-51.0;"""";"""";"""";"""";"""";"""";"""";"""";"""";"""";06/07/2021 09:49;93.105.177.91;Mozilla/5.0 (Windows NT 10.0;;;;;
141;1;"""";"""";"""";"""";"""";sampler;56;910132;0.0-4.0-52.0;"""";"""";"""";"""";"""";"""";"""";"""";"""";"""";06/07/2021 09:49;93.105.177.91;Mozilla/5.0 (Windows NT 10.0;;;;;
141;1;"""";"""";"""";"""";"""";sampler;57;910132;0.0-4.0-53.0;"""";"""";"""";"""";"""";"""";"""";"""";"""";"""";06/07/2021 09:49;93.105.177.91;Mozilla/5.0 (Windows NT 10.0;;;;;
141;1;"""";"""";"""";"""";"""";sampler;58;910132;0.0-4.0-54.0;"""";"""";"""";"""";"""";"""";"""";"""";"""";"""";06/07/2021 09:49;93.105.177.91;Mozilla/5.0 (Windows NT 10.0;;;;;
141;1;"""";"""";"""";"""";"""";sampler;59;910132;0.0-4.0-55.0;"""";"""";"""";"""";"""";"""";"""";"""";"""";"""";06/07/2021 09:49;93.105.177.91;Mozilla/5.0 (Windows NT 10.0;;;;;
141;1;"""";"""";"""";"""";"""";sampler;60;910132;0.0-4.0-56.0;"""";"""";"""";"""";"""";"""";"""";"""";"""";"""";06/07/2021 09:49;93.105.177.91;Mozilla/5.0 (Windows NT 10.0;;;;;
141;1;"""";"""";"""";"""";"""";sampler;61;910132;0.0-4.0-57.0;"""";"""";"""";"""";"""";"""";"""";"""";"""";"""";06/07/2021 09:49;93.105.177.91;Mozilla/5.0 (Windows NT 10.0;;;;;
141;1;"""";"""";"""";"""";"""";sampler;62;910132;0.0-4.0-58.0;"""";"""";"""";"""";"""";"""";"""";"""";"""";"""";06/07/2021 09:49;93.105.177.91;Mozilla/5.0 (Windows NT 10.0;;;;;
141;1;"""";"""";"""";"""";"""";sampler;63;910133;0.0-4.0-59.0;"""";"""";"""";"""";"""";"""";"""";"""";"""";"""";06/07/2021 09:49;93.105.177.91;Mozilla/5.0 (Windows NT 10.0;;;;;
141;1;"""";"""";"""";"""";"""";sampler;64;910133;0.0-4.0-60.0;"""";"""";"""";"""";"""";"""";"""";"""";"""";"""";06/07/2021 09:49;93.105.177.91;Mozilla/5.0 (Windows NT 10.0;;;;;
141;1;"""";"""";"""";"""";"""";sampler;65;910133;0.0-4.0-61.0;"""";"""";"""";"""";"""";"""";"""";"""";"""";"""";06/07/2021 09:49;93.105.177.91;Mozilla/5.0 (Windows NT 10.0;;;;;
141;1;"""";"""";"""";"""";"""";sampler;66;910133;0.0-4.0-62.0;"""";"""";"""";"""";"""";"""";"""";"""";"""";"""";06/07/2021 09:49;93.105.177.91;Mozilla/5.0 (Windows NT 10.0;;;;;
141;1;"""";"""";"""";"""";"""";sampler;67;910133;0.0-4.0-63.0;"""";"""";"""";"""";"""";"""";"""";"""";"""";"""";06/07/2021 09:49;93.105.177.91;Mozilla/5.0 (Windows NT 10.0;;;;;
141;1;"""";"""";"""";"""";"""";sampler;68;910133;0.0-4.0-64.0;"""";"""";"""";"""";"""";"""";"""";"""";"""";"""";06/07/2021 09:49;93.105.177.91;Mozilla/5.0 (Windows NT 10.0;;;;;
141;1;"""";"""";"""";"""";"""";sampler;69;910133;0.0-4.0-65.0;"""";"""";"""";"""";"""";"""";"""";"""";"""";"""";06/07/2021 09:49;93.105.177.91;Mozilla/5.0 (Windows NT 10.0;;;;;
141;1;"""";"""";"""";"""";"""";sampler;70;910135;0.0-4.0-66.0;"""";"""";"""";"""";"""";"""";"""";"""";"""";"""";06/07/2021 09:49;93.105.177.91;Mozilla/5.0 (Windows NT 10.0;;;;;
141;1;"""";"""";"""";"""";"""";sampler;71;910135;0.0-4.0-67.0;"""";"""";"""";"""";"""";"""";"""";"""";"""";"""";06/07/2021 09:49;93.105.177.91;Mozilla/5.0 (Windows NT 10.0;;;;;
141;1;"""";"""";"""";"""";"""";sampler;72;910135;0.0-4.0-68.0;"""";"""";"""";"""";"""";"""";"""";"""";"""";"""";06/07/2021 09:49;93.105.177.91;Mozilla/5.0 (Windows NT 10.0;;;;;
141;1;"""";"""";"""";"""";"""";sampler;73;910135;0.0-4.0-69.0;"""";"""";"""";"""";"""";"""";"""";"""";"""";"""";06/07/2021 09:49;93.105.177.91;Mozilla/5.0 (Windows NT 10.0;;;;;
141;1;"""";"""";"""";"""";"""";sampler;74;910135;0.0-4.0-70.0;"""";"""";"""";"""";"""";"""";"""";"""";"""";"""";06/07/2021 09:49;93.105.177.91;Mozilla/5.0 (Windows NT 10.0;;;;;
141;1;"""";"""";"""";"""";"""";sampler;75;910135;0.0-4.0-71.0;"""";"""";"""";"""";"""";"""";"""";"""";"""";"""";06/07/2021 09:49;93.105.177.91;Mozilla/5.0 (Windows NT 10.0;;;;;
141;1;"""";"""";"""";"""";"""";sampler;76;910136;0.0-4.0-72.0;"""";"""";"""";"""";"""";"""";"""";"""";"""";"""";06/07/2021 09:49;93.105.177.91;Mozilla/5.0 (Windows NT 10.0;;;;;
141;1;"""";"""";"""";"""";"""";sampler;77;910136;0.0-4.0-73.0;"""";"""";"""";"""";"""";"""";"""";"""";"""";"""";06/07/2021 09:49;93.105.177.91;Mozilla/5.0 (Windows NT 10.0;;;;;
141;1;"""";"""";"""";"""";"""";sampler;78;910136;0.0-4.0-74.0;"""";"""";"""";"""";"""";"""";"""";"""";"""";"""";06/07/2021 09:49;93.105.177.91;Mozilla/5.0 (Windows NT 10.0;;;;;
141;1;"""";"""";"""";"""";"""";sampler;79;910136;0.0-4.0-75.0;"""";"""";"""";"""";"""";"""";"""";"""";"""";"""";06/07/2021 09:49;93.105.177.91;Mozilla/5.0 (Windows NT 10.0;;;;;
141;1;"""";"""";"""";"""";"""";sampler;80;910136;0.0-4.0-76.0;"""";"""";"""";"""";"""";"""";"""";"""";"""";"""";06/07/2021 09:49;93.105.177.91;Mozilla/5.0 (Windows NT 10.0;;;;;
141;1;"""";"""";"""";"""";"""";sampler;81;910136;0.0-4.0-77.0;"""";"""";"""";"""";"""";"""";"""";"""";"""";"""";06/07/2021 09:49;93.105.177.91;Mozilla/5.0 (Windows NT 10.0;;;;;
141;1;"""";"""";"""";"""";"""";sampler;82;910136;0.0-4.0-78.0;"""";"""";"""";"""";"""";"""";"""";"""";"""";"""";06/07/2021 09:49;93.105.177.91;Mozilla/5.0 (Windows NT 10.0;;;;;
141;1;"""";"""";"""";"""";"""";sampler;83;910137;0.0-4.0-79.0;"""";"""";"""";"""";"""";"""";"""";"""";"""";"""";06/07/2021 09:49;93.105.177.91;Mozilla/5.0 (Windows NT 10.0;;;;;
141;1;"""";"""";"""";"""";"""";sampler;84;910137;0.0-4.0-80.0;"""";"""";"""";"""";"""";"""";"""";"""";"""";"""";06/07/2021 09:49;93.105.177.91;Mozilla/5.0 (Windows NT 10.0;;;;;
141;1;"""";"""";"""";"""";"""";sampler;85;910137;0.0-4.0-81.0;"""";"""";"""";"""";"""";"""";"""";"""";"""";"""";06/07/2021 09:49;93.105.177.91;Mozilla/5.0 (Windows NT 10.0;;;;;
141;1;"""";"""";"""";"""";"""";sampler;86;910137;0.0-4.0-82.0;"""";"""";"""";"""";"""";"""";"""";"""";"""";"""";06/07/2021 09:49;93.105.177.91;Mozilla/5.0 (Windows NT 10.0;;;;;
141;1;"""";"""";"""";"""";"""";sampler;87;910137;0.0-4.0-83.0;"""";"""";"""";"""";"""";"""";"""";"""";"""";"""";06/07/2021 09:49;93.105.177.91;Mozilla/5.0 (Windows NT 10.0;;;;;
141;1;"""";"""";"""";"""";"""";sampler;88;910137;0.0-4.0-84.0;"""";"""";"""";"""";"""";"""";"""";"""";"""";"""";06/07/2021 09:49;93.105.177.91;Mozilla/5.0 (Windows NT 10.0;;;;;
141;1;"""";"""";"""";"""";"""";sampler;89;910138;0.0-4.0-85.0;"""";"""";"""";"""";"""";"""";"""";"""";"""";"""";06/07/2021 09:49;93.105.177.91;Mozilla/5.0 (Windows NT 10.0;;;;;
141;1;"""";"""";"""";"""";"""";sampler;90;910138;0.0-4.0-86.0;"""";"""";"""";"""";"""";"""";"""";"""";"""";"""";06/07/2021 09:49;93.105.177.91;Mozilla/5.0 (Windows NT 10.0;;;;;
141;1;"""";"""";"""";"""";"""";sampler;91;910138;0.0-4.0-87.0;"""";"""";"""";"""";"""";"""";"""";"""";"""";"""";06/07/2021 09:49;93.105.177.91;Mozilla/5.0 (Windows NT 10.0;;;;;
141;1;"""";"""";"""";"""";"""";sampler;92;910139;0.0-4.0-88.0;"""";"""";"""";"""";"""";"""";"""";"""";"""";"""";06/07/2021 09:49;93.105.177.91;Mozilla/5.0 (Windows NT 10.0;;;;;
141;1;"""";"""";"""";"""";"""";sampler;93;910139;0.0-4.0-89.0;"""";"""";"""";"""";"""";"""";"""";"""";"""";"""";06/07/2021 09:49;93.105.177.91;Mozilla/5.0 (Windows NT 10.0;;;;;
141;1;"""";"""";"""";"""";"""";sampler;94;910139;0.0-4.0-90.0;"""";"""";"""";"""";"""";"""";"""";"""";"""";"""";06/07/2021 09:49;93.105.177.91;Mozilla/5.0 (Windows NT 10.0;;;;;
141;1;"""";"""";"""";"""";"""";sampler;95;910140;0.0-4.0-91.0;"""";"""";"""";"""";"""";"""";"""";"""";"""";"""";06/07/2021 09:49;93.105.177.91;Mozilla/5.0 (Windows NT 10.0;;;;;
141;1;"""";"""";"""";"""";"""";sampler;96;910140;0.0-4.0-92.0;"""";"""";"""";"""";"""";"""";"""";"""";"""";"""";06/07/2021 09:49;93.105.177.91;Mozilla/5.0 (Windows NT 10.0;;;;;
141;1;"""";"""";"""";"""";"""";sampler;97;910140;0.0-4.0-93.0;"""";"""";"""";"""";"""";"""";"""";"""";"""";"""";06/07/2021 09:49;93.105.177.91;Mozilla/5.0 (Windows NT 10.0;;;;;
141;1;"""";"""";"""";"""";"""";sampler;98;910140;0.0-4.0-94.0;"""";"""";"""";"""";"""";"""";"""";"""";"""";"""";06/07/2021 09:49;93.105.177.91;Mozilla/5.0 (Windows NT 10.0;;;;;
141;1;"""";"""";"""";"""";"""";sampler;99;910141;0.0-4.0-95.0;"""";"""";"""";"""";"""";"""";"""";"""";"""";"""";06/07/2021 09:49;93.105.177.91;Mozilla/5.0 (Windows NT 10.0;;;;;
141;1;"""";"""";"""";"""";"""";sampler;100;910141;0.0-4.0-96.0;"""";"""";"""";"""";"""";"""";"""";"""";"""";"""";06/07/2021 09:49;93.105.177.91;Mozilla/5.0 (Windows NT 10.0;;;;;
141;1;"""";"""";"""";"""";"""";sampler;101;910141;0.0-4.0-97.0;"""";"""";"""";"""";"""";"""";"""";"""";"""";"""";06/07/2021 09:49;93.105.177.91;Mozilla/5.0 (Windows NT 10.0;;;;;
141;1;"""";"""";"""";"""";"""";sampler;102;910141;0.0-4.0-98.0;"""";"""";"""";"""";"""";"""";"""";"""";"""";"""";06/07/2021 09:49;93.105.177.91;Mozilla/5.0 (Windows NT 10.0;;;;;
141;1;"""";"""";"""";"""";"""";sampler;103;910142;0.0-4.0-99.0;"""";"""";"""";"""";"""";"""";"""";"""";"""";"""";06/07/2021 09:49;93.105.177.91;Mozilla/5.0 (Windows NT 10.0;;;;;
141;1;"""";"""";"""";"""";"""";sampler;104;910142;0.0-4.0-100.0;"""";"""";"""";"""";"""";"""";"""";"""";"""";"""";06/07/2021 09:49;93.105.177.91;Mozilla/5.0 (Windows NT 10.0;;;;;
141;1;"""";"""";"""";"""";"""";sampler;105;910142;0.0-4.0-101.0;"""";"""";"""";"""";"""";"""";"""";"""";"""";"""";06/07/2021 09:49;93.105.177.91;Mozilla/5.0 (Windows NT 10.0;;;;;
141;1;"""";"""";"""";"""";"""";sampler;106;910143;0.0-4.0-102.0;"""";"""";"""";"""";"""";"""";"""";"""";"""";"""";06/07/2021 09:49;93.105.177.91;Mozilla/5.0 (Windows NT 10.0;;;;;
141;1;"""";"""";"""";"""";"""";sampler;107;910143;0.0-4.0-103.0;"""";"""";"""";"""";"""";"""";"""";"""";"""";"""";06/07/2021 09:49;93.105.177.91;Mozilla/5.0 (Windows NT 10.0;;;;;
141;1;"""";"""";"""";"""";"""";sampler;108;910143;0.0-4.0-104.0;"""";"""";"""";"""";"""";"""";"""";"""";"""";"""";06/07/2021 09:49;93.105.177.91;Mozilla/5.0 (Windows NT 10.0;;;;;
141;1;"""";"""";"""";"""";"""";sampler;109;910143;0.0-4.0-105.0;"""";"""";"""";"""";"""";"""";"""";"""";"""";"""";06/07/2021 09:49;93.105.177.91;Mozilla/5.0 (Windows NT 10.0;;;;;
141;1;"""";"""";"""";"""";"""";sampler;110;910143;0.0-4.0-106.0;"""";"""";"""";"""";"""";"""";"""";"""";"""";"""";06/07/2021 09:49;93.105.177.91;Mozilla/5.0 (Windows NT 10.0;;;;;
141;1;"""";"""";"""";"""";"""";sampler;111;910144;0.0-4.0-107.0;"""";"""";"""";"""";"""";"""";"""";"""";"""";"""";06/07/2021 09:49;93.105.177.91;Mozilla/5.0 (Windows NT 10.0;;;;;
141;1;"""";"""";"""";"""";"""";sampler;112;910144;0.0-4.0-108.0;"""";"""";"""";"""";"""";"""";"""";"""";"""";"""";06/07/2021 09:49;93.105.177.91;Mozilla/5.0 (Windows NT 10.0;;;;;
141;1;"""";"""";"""";"""";"""";sampler;113;910144;0.0-4.0-109.0;"""";"""";"""";"""";"""";"""";"""";"""";"""";"""";06/07/2021 09:49;93.105.177.91;Mozilla/5.0 (Windows NT 10.0;;;;;
141;1;"""";"""";"""";"""";"""";sampler;114;910144;0.0-4.0-110.0;"""";"""";"""";"""";"""";"""";"""";"""";"""";"""";06/07/2021 09:49;93.105.177.91;Mozilla/5.0 (Windows NT 10.0;;;;;
141;1;"""";"""";"""";"""";"""";sampler;115;910144;0.0-4.0-111.0;"""";"""";"""";"""";"""";"""";"""";"""";"""";"""";06/07/2021 09:49;93.105.177.91;Mozilla/5.0 (Windows NT 10.0;;;;;
141;1;"""";"""";"""";"""";"""";sampler;116;910144;0.0-4.0-112.0;"""";"""";"""";"""";"""";"""";"""";"""";"""";"""";06/07/2021 09:49;93.105.177.91;Mozilla/5.0 (Windows NT 10.0;;;;;
141;1;"""";"""";"""";"""";"""";sampler;117;910144;0.0-4.0-113.0;"""";"""";"""";"""";"""";"""";"""";"""";"""";"""";06/07/2021 09:49;93.105.177.91;Mozilla/5.0 (Windows NT 10.0;;;;;
141;1;"""";"""";"""";"""";"""";sampler;118;910144;0.0-4.0-114.0;"""";"""";"""";"""";"""";"""";"""";"""";"""";"""";06/07/2021 09:49;93.105.177.91;Mozilla/5.0 (Windows NT 10.0;;;;;
141;1;"""";"""";"""";"""";"""";sampler;119;910144;0.0-4.0-115.0;"""";"""";"""";"""";"""";"""";"""";"""";"""";"""";06/07/2021 09:49;93.105.177.91;Mozilla/5.0 (Windows NT 10.0;;;;;
141;1;"""";"""";"""";"""";"""";sampler;120;910144;0.0-4.0-116.0;"""";"""";"""";"""";"""";"""";"""";"""";"""";"""";06/07/2021 09:49;93.105.177.91;Mozilla/5.0 (Windows NT 10.0;;;;;
141;1;"""";"""";"""";"""";"""";sampler;121;910144;0.0-4.0-117.0;"""";"""";"""";"""";"""";"""";"""";"""";"""";"""";06/07/2021 09:49;93.105.177.91;Mozilla/5.0 (Windows NT 10.0;;;;;
141;1;"""";"""";"""";"""";"""";sampler;122;910145;0.0-4.0-118.0;"""";"""";"""";"""";"""";"""";"""";"""";"""";"""";06/07/2021 09:49;93.105.177.91;Mozilla/5.0 (Windows NT 10.0;;;;;
141;1;"""";"""";"""";"""";"""";sampler;123;910145;0.0-4.0-119.0;"""";"""";"""";"""";"""";"""";"""";"""";"""";"""";06/07/2021 09:49;93.105.177.91;Mozilla/5.0 (Windows NT 10.0;;;;;
141;1;"""";"""";"""";"""";"""";sampler;124;910145;0.0-4.0-120.0;"""";"""";"""";"""";"""";"""";"""";"""";"""";"""";06/07/2021 09:49;93.105.177.91;Mozilla/5.0 (Windows NT 10.0;;;;;
141;1;"""";"""";"""";"""";"""";sampler;125;910145;0.0-4.0-121.0;"""";"""";"""";"""";"""";"""";"""";"""";"""";"""";06/07/2021 09:49;93.105.177.91;Mozilla/5.0 (Windows NT 10.0;;;;;
141;1;"""";"""";"""";"""";"""";sampler;126;910145;0.0-4.0-122.0;"""";"""";"""";"""";"""";"""";"""";"""";"""";"""";06/07/2021 09:49;93.105.177.91;Mozilla/5.0 (Windows NT 10.0;;;;;
141;1;"""";"""";"""";"""";"""";sampler;127;910145;0.0-4.0-123.0;"""";"""";"""";"""";"""";"""";"""";"""";"""";"""";06/07/2021 09:49;93.105.177.91;Mozilla/5.0 (Windows NT 10.0;;;;;
141;1;"""";"""";"""";"""";"""";sampler;128;910145;0.0-4.0-124.0;"""";"""";"""";"""";"""";"""";"""";"""";"""";"""";06/07/2021 09:49;93.105.177.91;Mozilla/5.0 (Windows NT 10.0;;;;;
141;1;"""";"""";"""";"""";"""";sampler;129;910145;0.0-4.0-125.0;"""";"""";"""";"""";"""";"""";"""";"""";"""";"""";06/07/2021 09:49;93.105.177.91;Mozilla/5.0 (Windows NT 10.0;;;;;
141;1;"""";"""";"""";"""";"""";sampler;130;910145;0.0-4.0-126.0;"""";"""";"""";"""";"""";"""";"""";"""";"""";"""";06/07/2021 09:49;93.105.177.91;Mozilla/5.0 (Windows NT 10.0;;;;;
141;1;"""";"""";"""";"""";"""";sampler;131;910145;0.0-4.0-127.0;"""";"""";"""";"""";"""";"""";"""";"""";"""";"""";06/07/2021 09:49;93.105.177.91;Mozilla/5.0 (Windows NT 10.0;;;;;
141;1;"""";"""";"""";"""";"""";sampler;132;910146;0.0-4.0-128.0;"""";"""";"""";"""";"""";"""";"""";"""";"""";"""";06/07/2021 09:49;93.105.177.91;Mozilla/5.0 (Windows NT 10.0;;;;;
141;1;"""";"""";"""";"""";"""";sampler;133;910146;0.0-4.0-129.0;"""";"""";"""";"""";"""";"""";"""";"""";"""";"""";06/07/2021 09:49;93.105.177.91;Mozilla/5.0 (Windows NT 10.0;;;;;
141;1;"""";"""";"""";"""";"""";sampler;134;910146;0.0-4.0-130.0;"""";"""";"""";"""";"""";"""";"""";"""";"""";"""";06/07/2021 09:49;93.105.177.91;Mozilla/5.0 (Windows NT 10.0;;;;;
141;1;"""";"""";"""";"""";"""";sampler;135;910146;0.0-4.0-131.0;"""";"""";"""";"""";"""";"""";"""";"""";"""";"""";06/07/2021 09:49;93.105.177.91;Mozilla/5.0 (Windows NT 10.0;;;;;
141;1;"""";"""";"""";"""";"""";sampler;136;910146;0.0-4.0-132.0;"""";"""";"""";"""";"""";"""";"""";"""";"""";"""";06/07/2021 09:49;93.105.177.91;Mozilla/5.0 (Windows NT 10.0;;;;;
141;1;"""";"""";"""";"""";"""";sampler;137;910146;0.0-4.0-133.0;"""";"""";"""";"""";"""";"""";"""";"""";"""";"""";06/07/2021 09:49;93.105.177.91;Mozilla/5.0 (Windows NT 10.0;;;;;
141;1;"""";"""";"""";"""";"""";sampler;138;910146;0.0-4.0-134.0;"""";"""";"""";"""";"""";"""";"""";"""";"""";"""";06/07/2021 09:49;93.105.177.91;Mozilla/5.0 (Windows NT 10.0;;;;;
141;1;"""";"""";"""";"""";"""";sampler;139;910146;0.0-4.0-135.0;"""";"""";"""";"""";"""";"""";"""";"""";"""";"""";06/07/2021 09:49;93.105.177.91;Mozilla/5.0 (Windows NT 10.0;;;;;
141;1;"""";"""";"""";"""";"""";sampler;140;910146;0.0-4.0-136.0;"""";"""";"""";"""";"""";"""";"""";"""";"""";"""";06/07/2021 09:49;93.105.177.91;Mozilla/5.0 (Windows NT 10.0;;;;;
141;1;"""";"""";"""";"""";"""";sampler;141;910146;0.0-4.0-137.0;"""";"""";"""";"""";"""";"""";"""";"""";"""";"""";06/07/2021 09:49;93.105.177.91;Mozilla/5.0 (Windows NT 10.0;;;;;
141;1;"""";"""";"""";"""";"""";sampler;142;910147;0.0-4.0-138.0;"""";"""";"""";"""";"""";"""";"""";"""";"""";"""";06/07/2021 09:49;93.105.177.91;Mozilla/5.0 (Windows NT 10.0;;;;;
141;1;"""";"""";"""";"""";"""";sampler;143;910147;0.0-4.0-139.0;"""";"""";"""";"""";"""";"""";"""";"""";"""";"""";06/07/2021 09:49;93.105.177.91;Mozilla/5.0 (Windows NT 10.0;;;;;
141;1;"""";"""";"""";"""";"""";sampler;144;910147;0.0-4.0-140.0;"""";"""";"""";"""";"""";"""";"""";"""";"""";"""";06/07/2021 09:49;93.105.177.91;Mozilla/5.0 (Windows NT 10.0;;;;;
141;1;"""";"""";"""";"""";"""";sampler;145;910147;0.0-4.0-141.0;"""";"""";"""";"""";"""";"""";"""";"""";"""";"""";06/07/2021 09:49;93.105.177.91;Mozilla/5.0 (Windows NT 10.0;;;;;
141;1;"""";"""";"""";"""";"""";sampler;146;910147;0.0-4.0-142.0;"""";"""";"""";"""";"""";"""";"""";"""";"""";"""";06/07/2021 09:49;93.105.177.91;Mozilla/5.0 (Windows NT 10.0;;;;;
141;1;"""";"""";"""";"""";"""";sampler;147;910147;0.0-4.0-143.0;"""";"""";"""";"""";"""";"""";"""";"""";"""";"""";06/07/2021 09:49;93.105.177.91;Mozilla/5.0 (Windows NT 10.0;;;;;
141;1;"""";"""";"""";"""";"""";sampler;148;910147;0.0-4.0-144.0;"""";"""";"""";"""";"""";"""";"""";"""";"""";"""";06/07/2021 09:49;93.105.177.91;Mozilla/5.0 (Windows NT 10.0;;;;;
141;1;"""";"""";"""";"""";"""";sampler;149;910147;0.0-4.0-145.0;"""";"""";"""";"""";"""";"""";"""";"""";"""";"""";06/07/2021 09:49;93.105.177.91;Mozilla/5.0 (Windows NT 10.0;;;;;
141;1;"""";"""";"""";"""";"""";sampler;150;910147;0.0-4.0-146.0;"""";"""";"""";"""";"""";"""";"""";"""";"""";"""";06/07/2021 09:49;93.105.177.91;Mozilla/5.0 (Windows NT 10.0;;;;;
141;1;"""";"""";"""";"""";"""";sampler;151;910148;0.0-4.0-147.0;"""";"""";"""";"""";"""";"""";"""";"""";"""";"""";06/07/2021 09:49;93.105.177.91;Mozilla/5.0 (Windows NT 10.0;;;;;
141;1;"""";"""";"""";"""";"""";sampler;152;910149;0.0-4.0-148.0;"""";"""";"""";"""";"""";"""";"""";"""";"""";"""";06/07/2021 09:49;93.105.177.91;Mozilla/5.0 (Windows NT 10.0;;;;;
141;1;"""";"""";"""";"""";"""";sampler;153;910149;0.0-4.0-149.0;"""";"""";"""";"""";"""";"""";"""";"""";"""";"""";06/07/2021 09:49;93.105.177.91;Mozilla/5.0 (Windows NT 10.0;;;;;
141;1;"""";"""";"""";"""";"""";sampler;154;910149;0.0-4.0-150.0;"""";"""";"""";"""";"""";"""";"""";"""";"""";"""";06/07/2021 09:49;93.105.177.91;Mozilla/5.0 (Windows NT 10.0;;;;;
141;1;"""";"""";"""";"""";"""";sampler;155;910149;0.0-4.0-151.0;"""";"""";"""";"""";"""";"""";"""";"""";"""";"""";06/07/2021 09:49;93.105.177.91;Mozilla/5.0 (Windows NT 10.0;;;;;
141;1;"""";"""";"""";"""";"""";sampler;156;910149;0.0-4.0-152.0;"""";"""";"""";"""";"""";"""";"""";"""";"""";"""";06/07/2021 09:49;93.105.177.91;Mozilla/5.0 (Windows NT 10.0;;;;;
141;1;"""";"""";"""";"""";"""";sampler;157;910149;0.0-4.0-153.0;"""";"""";"""";"""";"""";"""";"""";"""";"""";"""";06/07/2021 09:49;93.105.177.91;Mozilla/5.0 (Windows NT 10.0;;;;;
141;1;"""";"""";"""";"""";"""";sampler;158;910149;0.0-4.0-154.0;"""";"""";"""";"""";"""";"""";"""";"""";"""";"""";06/07/2021 09:49;93.105.177.91;Mozilla/5.0 (Windows NT 10.0;;;;;
141;1;"""";"""";"""";"""";"""";sampler;159;910149;0.0-4.0-155.0;"""";"""";"""";"""";"""";"""";"""";"""";"""";"""";06/07/2021 09:49;93.105.177.91;Mozilla/5.0 (Windows NT 10.0;;;;;
141;1;"""";"""";"""";"""";"""";sampler;160;910150;0.0-4.0-156.0;"""";"""";"""";"""";"""";"""";"""";"""";"""";"""";06/07/2021 09:49;93.105.177.91;Mozilla/5.0 (Windows NT 10.0;;;;;
141;1;"""";"""";"""";"""";"""";sampler;161;910150;0.0-4.0-157.0;"""";"""";"""";"""";"""";"""";"""";"""";"""";"""";06/07/2021 09:49;93.105.177.91;Mozilla/5.0 (Windows NT 10.0;;;;;
141;1;"""";"""";"""";"""";"""";sampler;162;910150;0.0-4.0-158.0;"""";"""";"""";"""";"""";"""";"""";"""";"""";"""";06/07/2021 09:49;93.105.177.91;Mozilla/5.0 (Windows NT 10.0;;;;;
141;1;"""";"""";"""";"""";"""";sampler;163;910150;0.0-4.0-159.0;"""";"""";"""";"""";"""";"""";"""";"""";"""";"""";06/07/2021 09:49;93.105.177.91;Mozilla/5.0 (Windows NT 10.0;;;;;
141;1;"""";"""";"""";"""";"""";sampler;164;910150;0.0-4.0-160.0;"""";"""";"""";"""";"""";"""";"""";"""";"""";"""";06/07/2021 09:49;93.105.177.91;Mozilla/5.0 (Windows NT 10.0;;;;;
141;1;"""";"""";"""";"""";"""";sampler;165;910150;0.0-4.0-161.0;"""";"""";"""";"""";"""";"""";"""";"""";"""";"""";06/07/2021 09:49;93.105.177.91;Mozilla/5.0 (Windows NT 10.0;;;;;
141;1;"""";"""";"""";"""";"""";sampler;166;910150;0.0-4.0-162.0;"""";"""";"""";"""";"""";"""";"""";"""";"""";"""";06/07/2021 09:49;93.105.177.91;Mozilla/5.0 (Windows NT 10.0;;;;;
141;1;"""";"""";"""";"""";"""";sampler;167;910150;0.0-4.0-163.0;"""";"""";"""";"""";"""";"""";"""";"""";"""";"""";06/07/2021 09:49;93.105.177.91;Mozilla/5.0 (Windows NT 10.0;;;;;
141;1;"""";"""";"""";"""";"""";sampler;168;910150;0.0-4.0-164.0;"""";"""";"""";"""";"""";"""";"""";"""";"""";"""";06/07/2021 09:49;93.105.177.91;Mozilla/5.0 (Windows NT 10.0;;;;;
141;1;"""";"""";"""";"""";"""";sampler;169;910150;0.0-4.0-165.0;"""";"""";"""";"""";"""";"""";"""";"""";"""";"""";06/07/2021 09:49;93.105.177.91;Mozilla/5.0 (Windows NT 10.0;;;;;
141;1;"""";"""";"""";"""";"""";sampler;170;910151;0.0-4.0-166.0;"""";"""";"""";"""";"""";"""";"""";"""";"""";"""";06/07/2021 09:49;93.105.177.91;Mozilla/5.0 (Windows NT 10.0;;;;;
141;1;"""";"""";"""";"""";"""";sampler;171;910151;0.0-4.0-167.0;"""";"""";"""";"""";"""";"""";"""";"""";"""";"""";06/07/2021 09:49;93.105.177.91;Mozilla/5.0 (Windows NT 10.0;;;;;
141;1;"""";"""";"""";"""";"""";sampler;172;910151;0.0-4.0-168.0;"""";"""";"""";"""";"""";"""";"""";"""";"""";"""";06/07/2021 09:49;93.105.177.91;Mozilla/5.0 (Windows NT 10.0;;;;;
141;1;"""";"""";"""";"""";"""";sampler;173;910151;0.0-4.0-169.0;"""";"""";"""";"""";"""";"""";"""";"""";"""";"""";06/07/2021 09:49;93.105.177.91;Mozilla/5.0 (Windows NT 10.0;;;;;
141;1;"""";"""";"""";"""";"""";sampler;174;910151;0.0-4.0-170.0;"""";"""";"""";"""";"""";"""";"""";"""";"""";"""";06/07/2021 09:49;93.105.177.91;Mozilla/5.0 (Windows NT 10.0;;;;;
141;1;"""";"""";"""";"""";"""";sampler;175;910151;0.0-4.0-171.0;"""";"""";"""";"""";"""";"""";"""";"""";"""";"""";06/07/2021 09:49;93.105.177.91;Mozilla/5.0 (Windows NT 10.0;;;;;
141;1;"""";"""";"""";"""";"""";sampler;176;910151;0.0-4.0-172.0;"""";"""";"""";"""";"""";"""";"""";"""";"""";"""";06/07/2021 09:49;93.105.177.91;Mozilla/5.0 (Windows NT 10.0;;;;;
141;1;"""";"""";"""";"""";"""";sampler;177;910151;0.0-4.0-173.0;"""";"""";"""";"""";"""";"""";"""";"""";"""";"""";06/07/2021 09:49;93.105.177.91;Mozilla/5.0 (Windows NT 10.0;;;;;
141;1;"""";"""";"""";"""";"""";sampler;178;910151;0.0-4.0-174.0;"""";"""";"""";"""";"""";"""";"""";"""";"""";"""";06/07/2021 09:49;93.105.177.91;Mozilla/5.0 (Windows NT 10.0;;;;;
141;1;"""";"""";"""";"""";"""";sampler;179;910151;0.0-4.0-175.0;"""";"""";"""";"""";"""";"""";"""";"""";"""";"""";06/07/2021 09:49;93.105.177.91;Mozilla/5.0 (Windows NT 10.0;;;;;
141;1;"""";"""";"""";"""";"""";sampler;180;910152;0.0-4.0-176.0;"""";"""";"""";"""";"""";"""";"""";"""";"""";"""";06/07/2021 09:49;93.105.177.91;Mozilla/5.0 (Windows NT 10.0;;;;;
141;1;"""";"""";"""";"""";"""";sampler;181;910152;0.0-4.0-177.0;"""";"""";"""";"""";"""";"""";"""";"""";"""";"""";06/07/2021 09:49;93.105.177.91;Mozilla/5.0 (Windows NT 10.0;;;;;
141;1;"""";"""";"""";"""";"""";sampler;182;910152;0.0-4.0-178.0;"""";"""";"""";"""";"""";"""";"""";"""";"""";"""";06/07/2021 09:49;93.105.177.91;Mozilla/5.0 (Windows NT 10.0;;;;;
141;1;"""";"""";"""";"""";"""";sampler;183;910152;0.0-4.0-179.0;"""";"""";"""";"""";"""";"""";"""";"""";"""";"""";06/07/2021 09:49;93.105.177.91;Mozilla/5.0 (Windows NT 10.0;;;;;
141;1;"""";"""";"""";"""";"""";sampler;184;910152;0.0-4.0-180.0;"""";"""";"""";"""";"""";"""";"""";"""";"""";"""";06/07/2021 09:49;93.105.177.91;Mozilla/5.0 (Windows NT 10.0;;;;;
141;1;"""";"""";"""";"""";"""";sampler;185;910152;0.0-4.0-181.0;"""";"""";"""";"""";"""";"""";"""";"""";"""";"""";06/07/2021 09:49;93.105.177.91;Mozilla/5.0 (Windows NT 10.0;;;;;
141;1;"""";"""";"""";"""";"""";sampler;186;910152;0.0-4.0-182.0;"""";"""";"""";"""";"""";"""";"""";"""";"""";"""";06/07/2021 09:49;93.105.177.91;Mozilla/5.0 (Windows NT 10.0;;;;;
141;1;"""";"""";"""";"""";"""";sampler;187;910152;0.0-4.0-183.0;"""";"""";"""";"""";"""";"""";"""";"""";"""";"""";06/07/2021 09:49;93.105.177.91;Mozilla/5.0 (Windows NT 10.0;;;;;
141;1;"""";"""";"""";"""";"""";sampler;188;910152;0.0-4.0-184.0;"""";"""";"""";"""";"""";"""";"""";"""";"""";"""";06/07/2021 09:49;93.105.177.91;Mozilla/5.0 (Windows NT 10.0;;;;;
141;1;"""";"""";"""";"""";"""";sampler;189;910153;0.0-4.0-185.0;"""";"""";"""";"""";"""";"""";"""";"""";"""";"""";06/07/2021 09:49;93.105.177.91;Mozilla/5.0 (Windows NT 10.0;;;;;
141;1;"""";"""";"""";"""";"""";sampler;190;910153;0.0-4.0-186.0;"""";"""";"""";"""";"""";"""";"""";"""";"""";"""";06/07/2021 09:49;93.105.177.91;Mozilla/5.0 (Windows NT 10.0;;;;;
141;1;"""";"""";"""";"""";"""";sampler;191;910153;0.0-4.0-187.0;"""";"""";"""";"""";"""";"""";"""";"""";"""";"""";06/07/2021 09:49;93.105.177.91;Mozilla/5.0 (Windows NT 10.0;;;;;
141;1;"""";"""";"""";"""";"""";sampler;192;910153;0.0-4.0-188.0;"""";"""";"""";"""";"""";"""";"""";"""";"""";"""";06/07/2021 09:49;93.105.177.91;Mozilla/5.0 (Windows NT 10.0;;;;;
141;1;"""";"""";"""";"""";"""";sampler;193;910153;0.0-4.0-189.0;"""";"""";"""";"""";"""";"""";"""";"""";"""";"""";06/07/2021 09:49;93.105.177.91;Mozilla/5.0 (Windows NT 10.0;;;;;
141;1;"""";"""";"""";"""";"""";sampler;194;910153;0.0-4.0-190.0;"""";"""";"""";"""";"""";"""";"""";"""";"""";"""";06/07/2021 09:49;93.105.177.91;Mozilla/5.0 (Windows NT 10.0;;;;;
141;1;"""";"""";"""";"""";"""";sampler;195;910153;0.0-4.0-191.0;"""";"""";"""";"""";"""";"""";"""";"""";"""";"""";06/07/2021 09:49;93.105.177.91;Mozilla/5.0 (Windows NT 10.0;;;;;
141;1;"""";"""";"""";"""";"""";sampler;196;910153;0.0-4.0-192.0;"""";"""";"""";"""";"""";"""";"""";"""";"""";"""";06/07/2021 09:49;93.105.177.91;Mozilla/5.0 (Windows NT 10.0;;;;;
141;1;"""";"""";"""";"""";"""";sampler;197;910153;0.0-4.0-193.0;"""";"""";"""";"""";"""";"""";"""";"""";"""";"""";06/07/2021 09:49;93.105.177.91;Mozilla/5.0 (Windows NT 10.0;;;;;
141;1;"""";"""";"""";"""";"""";sampler;198;910154;0.0-4.0-194.0;"""";"""";"""";"""";"""";"""";"""";"""";"""";"""";06/07/2021 09:49;93.105.177.91;Mozilla/5.0 (Windows NT 10.0;;;;;
141;1;"""";"""";"""";"""";"""";sampler;199;910154;0.0-4.0-195.0;"""";"""";"""";"""";"""";"""";"""";"""";"""";"""";06/07/2021 09:49;93.105.177.91;Mozilla/5.0 (Windows NT 10.0;;;;;
141;1;"""";"""";"""";"""";"""";sampler;200;910154;0.0-4.0-196.0;"""";"""";"""";"""";"""";"""";"""";"""";"""";"""";06/07/2021 09:49;93.105.177.91;Mozilla/5.0 (Windows NT 10.0;;;;;
141;1;"""";"""";"""";"""";"""";sampler;201;910154;0.0-4.0-197.0;"""";"""";"""";"""";"""";"""";"""";"""";"""";"""";06/07/2021 09:49;93.105.177.91;Mozilla/5.0 (Windows NT 10.0;;;;;
141;1;"""";"""";"""";"""";"""";sampler;202;910154;0.0-4.0-198.0;"""";"""";"""";"""";"""";"""";"""";"""";"""";"""";06/07/2021 09:49;93.105.177.91;Mozilla/5.0 (Windows NT 10.0;;;;;
141;1;"""";"""";"""";"""";"""";sampler;203;910154;0.0-4.0-199.0;"""";"""";"""";"""";"""";"""";"""";"""";"""";"""";06/07/2021 09:49;93.105.177.91;Mozilla/5.0 (Windows NT 10.0;;;;;
141;1;"""";"""";"""";"""";"""";sampler;204;910154;0.0-4.0-200.0;"""";"""";"""";"""";"""";"""";"""";"""";"""";"""";06/07/2021 09:49;93.105.177.91;Mozilla/5.0 (Windows NT 10.0;;;;;
141;1;"""";"""";"""";"""";"""";sampler;205;910154;0.0-4.0-201.0;"""";"""";"""";"""";"""";"""";"""";"""";"""";"""";06/07/2021 09:49;93.105.177.91;Mozilla/5.0 (Windows NT 10.0;;;;;
141;1;"""";"""";"""";"""";"""";sampler;206;910154;0.0-4.0-202.0;"""";"""";"""";"""";"""";"""";"""";"""";"""";"""";06/07/2021 09:49;93.105.177.91;Mozilla/5.0 (Windows NT 10.0;;;;;
141;1;"""";"""";"""";"""";"""";sampler;207;910154;0.0-4.0-203.0;"""";"""";"""";"""";"""";"""";"""";"""";"""";"""";06/07/2021 09:49;93.105.177.91;Mozilla/5.0 (Windows NT 10.0;;;;;
141;1;"""";"""";"""";"""";"""";sampler;208;910155;0.0-4.0-204.0;"""";"""";"""";"""";"""";"""";"""";"""";"""";"""";06/07/2021 09:49;93.105.177.91;Mozilla/5.0 (Windows NT 10.0;;;;;
141;1;"""";"""";"""";"""";"""";sampler;209;910155;0.0-4.0-205.0;"""";"""";"""";"""";"""";"""";"""";"""";"""";"""";06/07/2021 09:49;93.105.177.91;Mozilla/5.0 (Windows NT 10.0;;;;;
141;1;"""";"""";"""";"""";"""";sampler;210;910155;0.0-4.0-206.0;"""";"""";"""";"""";"""";"""";"""";"""";"""";"""";06/07/2021 09:49;93.105.177.91;Mozilla/5.0 (Windows NT 10.0;;;;;
141;1;"""";"""";"""";"""";"""";sampler;211;910155;0.0-4.0-207.0;"""";"""";"""";"""";"""";"""";"""";"""";"""";"""";06/07/2021 09:49;93.105.177.91;Mozilla/5.0 (Windows NT 10.0;;;;;
141;1;"""";"""";"""";"""";"""";sampler;212;910155;0.0-4.0-208.0;"""";"""";"""";"""";"""";"""";"""";"""";"""";"""";06/07/2021 09:49;93.105.177.91;Mozilla/5.0 (Windows NT 10.0;;;;;
141;1;"""";"""";"""";"""";"""";sampler;213;910155;0.0-4.0-209.0;"""";"""";"""";"""";"""";"""";"""";"""";"""";"""";06/07/2021 09:49;93.105.177.91;Mozilla/5.0 (Windows NT 10.0;;;;;
141;1;"""";"""";"""";"""";"""";sampler;214;910155;0.0-4.0-210.0;"""";"""";"""";"""";"""";"""";"""";"""";"""";"""";06/07/2021 09:49;93.105.177.91;Mozilla/5.0 (Windows NT 10.0;;;;;
141;1;"""";"""";"""";"""";"""";sampler;215;910156;0.0-4.0-211.0;"""";"""";"""";"""";"""";"""";"""";"""";"""";"""";06/07/2021 09:49;93.105.177.91;Mozilla/5.0 (Windows NT 10.0;;;;;
141;1;"""";"""";"""";"""";"""";sampler;216;910156;0.0-4.0-212.0;"""";"""";"""";"""";"""";"""";"""";"""";"""";"""";06/07/2021 09:49;93.105.177.91;Mozilla/5.0 (Windows NT 10.0;;;;;
141;1;"""";"""";"""";"""";"""";sampler;217;910156;0.0-4.0-213.0;"""";"""";"""";"""";"""";"""";"""";"""";"""";"""";06/07/2021 09:49;93.105.177.91;Mozilla/5.0 (Windows NT 10.0;;;;;
141;1;"""";"""";"""";"""";"""";sampler;218;910156;0.0-4.0-214.0;"""";"""";"""";"""";"""";"""";"""";"""";"""";"""";06/07/2021 09:49;93.105.177.91;Mozilla/5.0 (Windows NT 10.0;;;;;
141;1;"""";"""";"""";"""";"""";sampler;219;910156;0.0-4.0-215.0;"""";"""";"""";"""";"""";"""";"""";"""";"""";"""";06/07/2021 09:49;93.105.177.91;Mozilla/5.0 (Windows NT 10.0;;;;;
141;1;"""";"""";"""";"""";"""";sampler;220;910156;0.0-4.0-216.0;"""";"""";"""";"""";"""";"""";"""";"""";"""";"""";06/07/2021 09:49;93.105.177.91;Mozilla/5.0 (Windows NT 10.0;;;;;
141;1;"""";"""";"""";"""";"""";sampler;221;910156;0.0-4.0-217.0;"""";"""";"""";"""";"""";"""";"""";"""";"""";"""";06/07/2021 09:49;93.105.177.91;Mozilla/5.0 (Windows NT 10.0;;;;;
141;1;"""";"""";"""";"""";"""";sampler;222;910156;0.0-4.0-218.0;"""";"""";"""";"""";"""";"""";"""";"""";"""";"""";06/07/2021 09:49;93.105.177.91;Mozilla/5.0 (Windows NT 10.0;;;;;
141;1;"""";"""";"""";"""";"""";sampler;223;910156;0.0-4.0-219.0;"""";"""";"""";"""";"""";"""";"""";"""";"""";"""";06/07/2021 09:49;93.105.177.91;Mozilla/5.0 (Windows NT 10.0;;;;;
141;1;"""";"""";"""";"""";"""";sampler;224;910157;0.0-4.0-220.0;"""";"""";"""";"""";"""";"""";"""";"""";"""";"""";06/07/2021 09:49;93.105.177.91;Mozilla/5.0 (Windows NT 10.0;;;;;
141;1;"""";"""";"""";"""";"""";sampler;225;910157;0.0-4.0-221.0;"""";"""";"""";"""";"""";"""";"""";"""";"""";"""";06/07/2021 09:49;93.105.177.91;Mozilla/5.0 (Windows NT 10.0;;;;;
141;1;"""";"""";"""";"""";"""";sampler;226;910157;0.0-4.0-222.0;"""";"""";"""";"""";"""";"""";"""";"""";"""";"""";06/07/2021 09:49;93.105.177.91;Mozilla/5.0 (Windows NT 10.0;;;;;
141;1;"""";"""";"""";"""";"""";sampler;227;910157;0.0-4.0-223.0;"""";"""";"""";"""";"""";"""";"""";"""";"""";"""";06/07/2021 09:49;93.105.177.91;Mozilla/5.0 (Windows NT 10.0;;;;;
141;1;"""";"""";"""";"""";"""";sampler;228;910157;0.0-4.0-224.0;"""";"""";"""";"""";"""";"""";"""";"""";"""";"""";06/07/2021 09:49;93.105.177.91;Mozilla/5.0 (Windows NT 10.0;;;;;
141;1;"""";"""";"""";"""";"""";sampler;229;910157;0.0-4.0-225.0;"""";"""";"""";"""";"""";"""";"""";"""";"""";"""";06/07/2021 09:49;93.105.177.91;Mozilla/5.0 (Windows NT 10.0;;;;;
141;1;"""";"""";"""";"""";"""";sampler;230;910157;0.0-4.0-226.0;"""";"""";"""";"""";"""";"""";"""";"""";"""";"""";06/07/2021 09:49;93.105.177.91;Mozilla/5.0 (Windows NT 10.0;;;;;
141;1;"""";"""";"""";"""";"""";sampler;231;910157;0.0-4.0-227.0;"""";"""";"""";"""";"""";"""";"""";"""";"""";"""";06/07/2021 09:49;93.105.177.91;Mozilla/5.0 (Windows NT 10.0;;;;;
141;1;"""";"""";"""";"""";"""";sampler;232;910157;0.0-4.0-228.0;"""";"""";"""";"""";"""";"""";"""";"""";"""";"""";06/07/2021 09:49;93.105.177.91;Mozilla/5.0 (Windows NT 10.0;;;;;
141;1;"""";"""";"""";"""";"""";sampler;233;910158;0.0-4.0-229.0;"""";"""";"""";"""";"""";"""";"""";"""";"""";"""";06/07/2021 09:49;93.105.177.91;Mozilla/5.0 (Windows NT 10.0;;;;;
141;1;"""";"""";"""";"""";"""";sampler;234;910158;0.0-4.0-230.0;"""";"""";"""";"""";"""";"""";"""";"""";"""";"""";06/07/2021 09:49;93.105.177.91;Mozilla/5.0 (Windows NT 10.0;;;;;
141;1;"""";"""";"""";"""";"""";sampler;235;910158;0.0-4.0-231.0;"""";"""";"""";"""";"""";"""";"""";"""";"""";"""";06/07/2021 09:49;93.105.177.91;Mozilla/5.0 (Windows NT 10.0;;;;;
141;1;"""";"""";"""";"""";"""";sampler;236;910159;0.0-4.0-232.0;"""";"""";"""";"""";"""";"""";"""";"""";"""";"""";06/07/2021 09:49;93.105.177.91;Mozilla/5.0 (Windows NT 10.0;;;;;
141;1;"""";"""";"""";"""";"""";sampler;237;910159;0.0-4.0-233.0;"""";"""";"""";"""";"""";"""";"""";"""";"""";"""";06/07/2021 09:49;93.105.177.91;Mozilla/5.0 (Windows NT 10.0;;;;;
141;1;"""";"""";"""";"""";"""";sampler;238;910159;0.0-4.0-234.0;"""";"""";"""";"""";"""";"""";"""";"""";"""";"""";06/07/2021 09:49;93.105.177.91;Mozilla/5.0 (Windows NT 10.0;;;;;
141;1;"""";"""";"""";"""";"""";sampler;239;910159;0.0-4.0-235.0;"""";"""";"""";"""";"""";"""";"""";"""";"""";"""";06/07/2021 09:49;93.105.177.91;Mozilla/5.0 (Windows NT 10.0;;;;;
141;1;"""";"""";"""";"""";"""";sampler;240;910160;0.0-4.0-236.0;"""";"""";"""";"""";"""";"""";"""";"""";"""";"""";06/07/2021 09:49;93.105.177.91;Mozilla/5.0 (Windows NT 10.0;;;;;
141;1;"""";"""";"""";"""";"""";sampler;241;910160;0.0-4.0-237.0;"""";"""";"""";"""";"""";"""";"""";"""";"""";"""";06/07/2021 09:49;93.105.177.91;Mozilla/5.0 (Windows NT 10.0;;;;;
141;1;"""";"""";"""";"""";"""";sampler;242;910160;0.0-4.0-238.0;"""";"""";"""";"""";"""";"""";"""";"""";"""";"""";06/07/2021 09:49;93.105.177.91;Mozilla/5.0 (Windows NT 10.0;;;;;
141;1;"""";"""";"""";"""";"""";sampler;243;910160;0.0-4.0-239.0;"""";"""";"""";"""";"""";"""";"""";"""";"""";"""";06/07/2021 09:49;93.105.177.91;Mozilla/5.0 (Windows NT 10.0;;;;;
141;1;"""";"""";"""";"""";"""";sampler;244;910160;0.0-4.0-240.0;"""";"""";"""";"""";"""";"""";"""";"""";"""";"""";06/07/2021 09:49;93.105.177.91;Mozilla/5.0 (Windows NT 10.0;;;;;
141;1;"""";"""";"""";"""";"""";sampler;245;910160;0.0-4.0-241.0;"""";"""";"""";"""";"""";"""";"""";"""";"""";"""";06/07/2021 09:49;93.105.177.91;Mozilla/5.0 (Windows NT 10.0;;;;;
141;1;"""";"""";"""";"""";"""";sampler;246;910160;0.0-4.0-242.0;"""";"""";"""";"""";"""";"""";"""";"""";"""";"""";06/07/2021 09:49;93.105.177.91;Mozilla/5.0 (Windows NT 10.0;;;;;
141;1;"""";"""";"""";"""";"""";sampler;247;910160;0.0-4.0-243.0;"""";"""";"""";"""";"""";"""";"""";"""";"""";"""";06/07/2021 09:49;93.105.177.91;Mozilla/5.0 (Windows NT 10.0;;;;;
141;1;"""";"""";"""";"""";"""";sampler;248;910160;0.0-4.0-244.0;"""";"""";"""";"""";"""";"""";"""";"""";"""";"""";06/07/2021 09:49;93.105.177.91;Mozilla/5.0 (Windows NT 10.0;;;;;
141;1;"""";"""";"""";"""";"""";sampler;249;910161;0.0-4.0-245.0;"""";"""";"""";"""";"""";"""";"""";"""";"""";"""";06/07/2021 09:49;93.105.177.91;Mozilla/5.0 (Windows NT 10.0;;;;;
141;1;"""";"""";"""";"""";"""";sampler;250;910161;0.0-4.0-246.0;"""";"""";"""";"""";"""";"""";"""";"""";"""";"""";06/07/2021 09:49;93.105.177.91;Mozilla/5.0 (Windows NT 10.0;;;;;
141;1;"""";"""";"""";"""";"""";sampler;251;910161;0.0-4.0-247.0;"""";"""";"""";"""";"""";"""";"""";"""";"""";"""";06/07/2021 09:49;93.105.177.91;Mozilla/5.0 (Windows NT 10.0;;;;;
141;1;"""";"""";"""";"""";"""";sampler;252;910161;0.0-4.0-248.0;"""";"""";"""";"""";"""";"""";"""";"""";"""";"""";06/07/2021 09:49;93.105.177.91;Mozilla/5.0 (Windows NT 10.0;;;;;
141;1;"""";"""";"""";"""";"""";sampler;253;910161;0.0-4.0-249.0;"""";"""";"""";"""";"""";"""";"""";"""";"""";"""";06/07/2021 09:49;93.105.177.91;Mozilla/5.0 (Windows NT 10.0;;;;;
141;1;"""";"""";"""";"""";"""";sampler;254;910161;0.0-4.0-250.0;"""";"""";"""";"""";"""";"""";"""";"""";"""";"""";06/07/2021 09:49;93.105.177.91;Mozilla/5.0 (Windows NT 10.0;;;;;
141;1;"""";"""";"""";"""";"""";sampler;255;910161;0.0-4.0-251.0;"""";"""";"""";"""";"""";"""";"""";"""";"""";"""";06/07/2021 09:49;93.105.177.91;Mozilla/5.0 (Windows NT 10.0;;;;;
141;1;"""";"""";"""";"""";"""";sampler;256;910161;0.0-4.0-252.0;"""";"""";"""";"""";"""";"""";"""";"""";"""";"""";06/07/2021 09:49;93.105.177.91;Mozilla/5.0 (Windows NT 10.0;;;;;
141;1;"""";"""";"""";"""";"""";sampler;257;910162;0.0-4.0-253.0;"""";"""";"""";"""";"""";"""";"""";"""";"""";"""";06/07/2021 09:49;93.105.177.91;Mozilla/5.0 (Windows NT 10.0;;;;;
141;1;"""";"""";"""";"""";"""";sampler;258;910162;0.0-4.0-254.0;"""";"""";"""";"""";"""";"""";"""";"""";"""";"""";06/07/2021 09:49;93.105.177.91;Mozilla/5.0 (Windows NT 10.0;;;;;
141;1;"""";"""";"""";"""";"""";sampler;259;910162;0.0-4.0-255.0;"""";"""";"""";"""";"""";"""";"""";"""";"""";"""";06/07/2021 09:49;93.105.177.91;Mozilla/5.0 (Windows NT 10.0;;;;;
141;1;"""";"""";"""";"""";"""";sampler;260;910162;0.0-4.0-256.0;"""";"""";"""";"""";"""";"""";"""";"""";"""";"""";06/07/2021 09:49;93.105.177.91;Mozilla/5.0 (Windows NT 10.0;;;;;
141;1;"""";"""";"""";"""";"""";sampler;261;910162;0.0-4.0-257.0;"""";"""";"""";"""";"""";"""";"""";"""";"""";"""";06/07/2021 09:49;93.105.177.91;Mozilla/5.0 (Windows NT 10.0;;;;;
141;1;"""";"""";"""";"""";"""";sampler;262;910162;0.0-4.0-258.0;"""";"""";"""";"""";"""";"""";"""";"""";"""";"""";06/07/2021 09:49;93.105.177.91;Mozilla/5.0 (Windows NT 10.0;;;;;
141;1;"""";"""";"""";"""";"""";sampler;263;910162;0.0-4.0-259.0;"""";"""";"""";"""";"""";"""";"""";"""";"""";"""";06/07/2021 09:49;93.105.177.91;Mozilla/5.0 (Windows NT 10.0;;;;;
141;1;"""";"""";"""";"""";"""";sampler;264;910162;0.0-4.0-260.0;"""";"""";"""";"""";"""";"""";"""";"""";"""";"""";06/07/2021 09:49;93.105.177.91;Mozilla/5.0 (Windows NT 10.0;;;;;
141;1;"""";"""";"""";"""";"""";sampler;265;910162;0.0-4.0-261.0;"""";"""";"""";"""";"""";"""";"""";"""";"""";"""";06/07/2021 09:49;93.105.177.91;Mozilla/5.0 (Windows NT 10.0;;;;;
141;1;"""";"""";"""";"""";"""";sampler;266;910163;0.0-4.0-262.0;"""";"""";"""";"""";"""";"""";"""";"""";"""";"""";06/07/2021 09:49;93.105.177.91;Mozilla/5.0 (Windows NT 10.0;;;;;
141;1;"""";"""";"""";"""";"""";sampler;267;910163;0.0-4.0-263.0;"""";"""";"""";"""";"""";"""";"""";"""";"""";"""";06/07/2021 09:49;93.105.177.91;Mozilla/5.0 (Windows NT 10.0;;;;;
141;1;"""";"""";"""";"""";"""";sampler;268;910163;0.0-4.0-264.0;"""";"""";"""";"""";"""";"""";"""";"""";"""";"""";06/07/2021 09:49;93.105.177.91;Mozilla/5.0 (Windows NT 10.0;;;;;
141;1;"""";"""";"""";"""";"""";sampler;269;910163;0.0-4.0-265.0;"""";"""";"""";"""";"""";"""";"""";"""";"""";"""";06/07/2021 09:49;93.105.177.91;Mozilla/5.0 (Windows NT 10.0;;;;;
141;1;"""";"""";"""";"""";"""";sampler;270;910163;0.0-4.0-266.0;"""";"""";"""";"""";"""";"""";"""";"""";"""";"""";06/07/2021 09:49;93.105.177.91;Mozilla/5.0 (Windows NT 10.0;;;;;
141;1;"""";"""";"""";"""";"""";sampler;271;910163;0.0-4.0-267.0;"""";"""";"""";"""";"""";"""";"""";"""";"""";"""";06/07/2021 09:49;93.105.177.91;Mozilla/5.0 (Windows NT 10.0;;;;;
141;1;"""";"""";"""";"""";"""";sampler;272;910163;0.0-4.0-268.0;"""";"""";"""";"""";"""";"""";"""";"""";"""";"""";06/07/2021 09:49;93.105.177.91;Mozilla/5.0 (Windows NT 10.0;;;;;
141;1;"""";"""";"""";"""";"""";sampler;273;910163;0.0-4.0-269.0;"""";"""";"""";"""";"""";"""";"""";"""";"""";"""";06/07/2021 09:49;93.105.177.91;Mozilla/5.0 (Windows NT 10.0;;;;;
141;1;"""";"""";"""";"""";"""";sampler;274;910163;0.0-4.0-270.0;"""";"""";"""";"""";"""";"""";"""";"""";"""";"""";06/07/2021 09:49;93.105.177.91;Mozilla/5.0 (Windows NT 10.0;;;;;
141;1;"""";"""";"""";"""";"""";sampler;275;910164;0.0-4.0-271.0;"""";"""";"""";"""";"""";"""";"""";"""";"""";"""";06/07/2021 09:49;93.105.177.91;Mozilla/5.0 (Windows NT 10.0;;;;;
141;1;"""";"""";"""";"""";"""";sampler;276;910164;0.0-4.0-272.0;"""";"""";"""";"""";"""";"""";"""";"""";"""";"""";06/07/2021 09:49;93.105.177.91;Mozilla/5.0 (Windows NT 10.0;;;;;
141;1;"""";"""";"""";"""";"""";sampler;277;910164;0.0-4.0-273.0;"""";"""";"""";"""";"""";"""";"""";"""";"""";"""";06/07/2021 09:49;93.105.177.91;Mozilla/5.0 (Windows NT 10.0;;;;;
141;1;"""";"""";"""";"""";"""";sampler;278;910164;0.0-4.0-274.0;"""";"""";"""";"""";"""";"""";"""";"""";"""";"""";06/07/2021 09:49;93.105.177.91;Mozilla/5.0 (Windows NT 10.0;;;;;
141;1;"""";"""";"""";"""";"""";sampler;279;910164;0.0-4.0-275.0;"""";"""";"""";"""";"""";"""";"""";"""";"""";"""";06/07/2021 09:49;93.105.177.91;Mozilla/5.0 (Windows NT 10.0;;;;;
141;1;"""";"""";"""";"""";"""";sampler;280;910164;0.0-4.0-276.0;"""";"""";"""";"""";"""";"""";"""";"""";"""";"""";06/07/2021 09:49;93.105.177.91;Mozilla/5.0 (Windows NT 10.0;;;;;
141;1;"""";"""";"""";"""";"""";sampler;281;910164;0.0-4.0-277.0;"""";"""";"""";"""";"""";"""";"""";"""";"""";"""";06/07/2021 09:49;93.105.177.91;Mozilla/5.0 (Windows NT 10.0;;;;;
141;1;"""";"""";"""";"""";"""";sampler;282;910164;0.0-4.0-278.0;"""";"""";"""";"""";"""";"""";"""";"""";"""";"""";06/07/2021 09:49;93.105.177.91;Mozilla/5.0 (Windows NT 10.0;;;;;
141;1;"""";"""";"""";"""";"""";sampler;283;910165;0.0-4.0-279.0;"""";"""";"""";"""";"""";"""";"""";"""";"""";"""";06/07/2021 09:49;93.105.177.91;Mozilla/5.0 (Windows NT 10.0;;;;;
141;1;"""";"""";"""";"""";"""";sampler;284;910165;0.0-4.0-280.0;"""";"""";"""";"""";"""";"""";"""";"""";"""";"""";06/07/2021 09:49;93.105.177.91;Mozilla/5.0 (Windows NT 10.0;;;;;
141;1;"""";"""";"""";"""";"""";sampler;285;910165;0.0-4.0-281.0;"""";"""";"""";"""";"""";"""";"""";"""";"""";"""";06/07/2021 09:49;93.105.177.91;Mozilla/5.0 (Windows NT 10.0;;;;;
141;1;"""";"""";"""";"""";"""";sampler;286;910165;0.0-4.0-282.0;"""";"""";"""";"""";"""";"""";"""";"""";"""";"""";06/07/2021 09:49;93.105.177.91;Mozilla/5.0 (Windows NT 10.0;;;;;
141;1;"""";"""";"""";"""";"""";sampler;287;910165;0.0-4.0-283.0;"""";"""";"""";"""";"""";"""";"""";"""";"""";"""";06/07/2021 09:49;93.105.177.91;Mozilla/5.0 (Windows NT 10.0;;;;;
141;1;"""";"""";"""";"""";"""";sampler;288;910166;0.0-4.0-284.0;"""";"""";"""";"""";"""";"""";"""";"""";"""";"""";06/07/2021 09:49;93.105.177.91;Mozilla/5.0 (Windows NT 10.0;;;;;
141;1;"""";"""";"""";"""";"""";sampler;289;910166;0.0-4.0-285.0;"""";"""";"""";"""";"""";"""";"""";"""";"""";"""";06/07/2021 09:49;93.105.177.91;Mozilla/5.0 (Windows NT 10.0;;;;;
141;1;"""";"""";"""";"""";"""";sampler;290;910166;0.0-4.0-286.0;"""";"""";"""";"""";"""";"""";"""";"""";"""";"""";06/07/2021 09:49;93.105.177.91;Mozilla/5.0 (Windows NT 10.0;;;;;
141;1;"""";"""";"""";"""";"""";sampler;291;910166;0.0-4.0-287.0;"""";"""";"""";"""";"""";"""";"""";"""";"""";"""";06/07/2021 09:49;93.105.177.91;Mozilla/5.0 (Windows NT 10.0;;;;;
141;1;"""";"""";"""";"""";"""";sampler;292;910166;0.0-4.0-288.0;"""";"""";"""";"""";"""";"""";"""";"""";"""";"""";06/07/2021 09:49;93.105.177.91;Mozilla/5.0 (Windows NT 10.0;;;;;
141;1;"""";"""";"""";"""";"""";sampler;293;910166;0.0-4.0-289.0;"""";"""";"""";"""";"""";"""";"""";"""";"""";"""";06/07/2021 09:49;93.105.177.91;Mozilla/5.0 (Windows NT 10.0;;;;;
141;1;"""";"""";"""";"""";"""";sampler;294;910167;0.0-4.0-290.0;"""";"""";"""";"""";"""";"""";"""";"""";"""";"""";06/07/2021 09:49;93.105.177.91;Mozilla/5.0 (Windows NT 10.0;;;;;
141;1;"""";"""";"""";"""";"""";sampler;295;910167;0.0-4.0-291.0;"""";"""";"""";"""";"""";"""";"""";"""";"""";"""";06/07/2021 09:49;93.105.177.91;Mozilla/5.0 (Windows NT 10.0;;;;;
141;1;"""";"""";"""";"""";"""";sampler;296;910168;0.0-4.0-292.0;"""";"""";"""";"""";"""";"""";"""";"""";"""";"""";06/07/2021 09:49;93.105.177.91;Mozilla/5.0 (Windows NT 10.0;;;;;
141;1;"""";"""";"""";"""";"""";sampler;297;910168;0.0-4.0-293.0;"""";"""";"""";"""";"""";"""";"""";"""";"""";"""";06/07/2021 09:49;93.105.177.91;Mozilla/5.0 (Windows NT 10.0;;;;;
141;1;"""";"""";"""";"""";"""";sampler;298;910168;0.0-4.0-294.0;"""";"""";"""";"""";"""";"""";"""";"""";"""";"""";06/07/2021 09:49;93.105.177.91;Mozilla/5.0 (Windows NT 10.0;;;;;
141;1;"""";"""";"""";"""";"""";sampler;299;910168;0.0-4.0-295.0;"""";"""";"""";"""";"""";"""";"""";"""";"""";"""";06/07/2021 09:49;93.105.177.91;Mozilla/5.0 (Windows NT 10.0;;;;;
141;1;"""";"""";"""";"""";"""";sampler;300;910168;0.0-4.0-296.0;"""";"""";"""";"""";"""";"""";"""";"""";"""";"""";06/07/2021 09:49;93.105.177.91;Mozilla/5.0 (Windows NT 10.0;;;;;
141;1;"""";"""";"""";"""";"""";sampler;301;910168;0.0-4.0-297.0;"""";"""";"""";"""";"""";"""";"""";"""";"""";"""";06/07/2021 09:49;93.105.177.91;Mozilla/5.0 (Windows NT 10.0;;;;;
141;1;"""";"""";"""";"""";"""";sampler;302;910168;0.0-4.0-298.0;"""";"""";"""";"""";"""";"""";"""";"""";"""";"""";06/07/2021 09:49;93.105.177.91;Mozilla/5.0 (Windows NT 10.0;;;;;
141;1;"""";"""";"""";"""";"""";sampler;303;910169;0.0-4.0-299.0;"""";"""";"""";"""";"""";"""";"""";"""";"""";"""";06/07/2021 09:49;93.105.177.91;Mozilla/5.0 (Windows NT 10.0;;;;;
141;1;"""";"""";"""";"""";"""";sampler;304;910169;0.0-4.0-300.0;"""";"""";"""";"""";"""";"""";"""";"""";"""";"""";06/07/2021 09:49;93.105.177.91;Mozilla/5.0 (Windows NT 10.0;;;;;
141;1;"""";"""";"""";"""";"""";sampler;305;910169;0.0-4.0-301.0;"""";"""";"""";"""";"""";"""";"""";"""";"""";"""";06/07/2021 09:49;93.105.177.91;Mozilla/5.0 (Windows NT 10.0;;;;;
141;1;"""";"""";"""";"""";"""";sampler;306;910169;0.0-4.0-302.0;"""";"""";"""";"""";"""";"""";"""";"""";"""";"""";06/07/2021 09:49;93.105.177.91;Mozilla/5.0 (Windows NT 10.0;;;;;
141;1;"""";"""";"""";"""";"""";sampler;307;910169;0.0-4.0-303.0;"""";"""";"""";"""";"""";"""";"""";"""";"""";"""";06/07/2021 09:49;93.105.177.91;Mozilla/5.0 (Windows NT 10.0;;;;;
141;1;"""";"""";"""";"""";"""";sampler;308;910169;0.0-4.0-304.0;"""";"""";"""";"""";"""";"""";"""";"""";"""";"""";06/07/2021 09:49;93.105.177.91;Mozilla/5.0 (Windows NT 10.0;;;;;
141;1;"""";"""";"""";"""";"""";sampler;309;910171;0.0-4.0-305.0;"""";"""";"""";"""";"""";"""";"""";"""";"""";"""";06/07/2021 09:49;93.105.177.91;Mozilla/5.0 (Windows NT 10.0;;;;;
141;1;"""";"""";"""";"""";"""";sampler;310;910171;0.0-4.0-306.0;"""";"""";"""";"""";"""";"""";"""";"""";"""";"""";06/07/2021 09:49;93.105.177.91;Mozilla/5.0 (Windows NT 10.0;;;;;
141;1;"""";"""";"""";"""";"""";sampler;311;910171;0.0-4.0-307.0;"""";"""";"""";"""";"""";"""";"""";"""";"""";"""";06/07/2021 09:49;93.105.177.91;Mozilla/5.0 (Windows NT 10.0;;;;;
141;1;"""";"""";"""";"""";"""";sampler;312;910171;0.0-4.0-308.0;"""";"""";"""";"""";"""";"""";"""";"""";"""";"""";06/07/2021 09:49;93.105.177.91;Mozilla/5.0 (Windows NT 10.0;;;;;
141;1;"""";"""";"""";"""";"""";sampler;313;910171;0.0-4.0-309.0;"""";"""";"""";"""";"""";"""";"""";"""";"""";"""";06/07/2021 09:49;93.105.177.91;Mozilla/5.0 (Windows NT 10.0;;;;;
141;1;"""";"""";"""";"""";"""";sampler;314;910172;0.0-4.0-310.0;"""";"""";"""";"""";"""";"""";"""";"""";"""";"""";06/07/2021 09:49;93.105.177.91;Mozilla/5.0 (Windows NT 10.0;;;;;
141;1;"""";"""";"""";"""";"""";sampler;315;910172;0.0-4.0-311.0;"""";"""";"""";"""";"""";"""";"""";"""";"""";"""";06/07/2021 09:49;93.105.177.91;Mozilla/5.0 (Windows NT 10.0;;;;;
141;1;"""";"""";"""";"""";"""";sampler;316;910172;0.0-4.0-312.0;"""";"""";"""";"""";"""";"""";"""";"""";"""";"""";06/07/2021 09:49;93.105.177.91;Mozilla/5.0 (Windows NT 10.0;;;;;
141;1;"""";"""";"""";"""";"""";sampler;317;910172;0.0-4.0-313.0;"""";"""";"""";"""";"""";"""";"""";"""";"""";"""";06/07/2021 09:49;93.105.177.91;Mozilla/5.0 (Windows NT 10.0;;;;;
141;1;"""";"""";"""";"""";"""";sampler;318;910172;0.0-4.0-314.0;"""";"""";"""";"""";"""";"""";"""";"""";"""";"""";06/07/2021 09:49;93.105.177.91;Mozilla/5.0 (Windows NT 10.0;;;;;
141;1;"""";"""";"""";"""";"""";sampler;319;910173;0.0-4.0-315.0;"""";"""";"""";"""";"""";"""";"""";"""";"""";"""";06/07/2021 09:49;93.105.177.91;Mozilla/5.0 (Windows NT 10.0;;;;;
141;1;"""";"""";"""";"""";"""";sampler;320;910173;0.0-4.0-316.0;"""";"""";"""";"""";"""";"""";"""";"""";"""";"""";06/07/2021 09:49;93.105.177.91;Mozilla/5.0 (Windows NT 10.0;;;;;
141;1;"""";"""";"""";"""";"""";sampler;321;910173;0.0-4.0-317.0;"""";"""";"""";"""";"""";"""";"""";"""";"""";"""";06/07/2021 09:49;93.105.177.91;Mozilla/5.0 (Windows NT 10.0;;;;;
141;1;"""";"""";"""";"""";"""";sampler;322;910173;0.0-4.0-318.0;"""";"""";"""";"""";"""";"""";"""";"""";"""";"""";06/07/2021 09:49;93.105.177.91;Mozilla/5.0 (Windows NT 10.0;;;;;
141;1;"""";"""";"""";"""";"""";sampler;323;910173;0.0-4.0-319.0;"""";"""";"""";"""";"""";"""";"""";"""";"""";"""";06/07/2021 09:49;93.105.177.91;Mozilla/5.0 (Windows NT 10.0;;;;;
141;1;"""";"""";"""";"""";"""";sampler;324;910173;0.0-4.0-320.0;"""";"""";"""";"""";"""";"""";"""";"""";"""";"""";06/07/2021 09:49;93.105.177.91;Mozilla/5.0 (Windows NT 10.0;;;;;
141;1;"""";"""";"""";"""";"""";sampler;325;910173;0.0-4.0-321.0;"""";"""";"""";"""";"""";"""";"""";"""";"""";"""";06/07/2021 09:49;93.105.177.91;Mozilla/5.0 (Windows NT 10.0;;;;;
141;1;"""";"""";"""";"""";"""";sampler;326;910173;0.0-4.0-322.0;"""";"""";"""";"""";"""";"""";"""";"""";"""";"""";06/07/2021 09:49;93.105.177.91;Mozilla/5.0 (Windows NT 10.0;;;;;
141;1;"""";"""";"""";"""";"""";sampler;327;910174;0.0-4.0-323.0;"""";"""";"""";"""";"""";"""";"""";"""";"""";"""";06/07/2021 09:49;93.105.177.91;Mozilla/5.0 (Windows NT 10.0;;;;;
141;1;"""";"""";"""";"""";"""";sampler;328;910174;0.0-4.0-324.0;"""";"""";"""";"""";"""";"""";"""";"""";"""";"""";06/07/2021 09:49;93.105.177.91;Mozilla/5.0 (Windows NT 10.0;;;;;
141;1;"""";"""";"""";"""";"""";sampler;329;910174;0.0-4.0-325.0;"""";"""";"""";"""";"""";"""";"""";"""";"""";"""";06/07/2021 09:49;93.105.177.91;Mozilla/5.0 (Windows NT 10.0;;;;;
141;1;"""";"""";"""";"""";"""";sampler;330;910174;0.0-4.0-326.0;"""";"""";"""";"""";"""";"""";"""";"""";"""";"""";06/07/2021 09:49;93.105.177.91;Mozilla/5.0 (Windows NT 10.0;;;;;
141;1;"""";"""";"""";"""";"""";sampler;331;910174;0.0-4.0-327.0;"""";"""";"""";"""";"""";"""";"""";"""";"""";"""";06/07/2021 09:49;93.105.177.91;Mozilla/5.0 (Windows NT 10.0;;;;;
141;1;"""";"""";"""";"""";"""";sampler;332;910174;0.0-4.0-328.0;"""";"""";"""";"""";"""";"""";"""";"""";"""";"""";06/07/2021 09:49;93.105.177.91;Mozilla/5.0 (Windows NT 10.0;;;;;
141;1;"""";"""";"""";"""";"""";sampler;333;910174;0.0-4.0-329.0;"""";"""";"""";"""";"""";"""";"""";"""";"""";"""";06/07/2021 09:49;93.105.177.91;Mozilla/5.0 (Windows NT 10.0;;;;;
141;1;"""";"""";"""";"""";"""";sampler;334;910174;0.0-4.0-330.0;"""";"""";"""";"""";"""";"""";"""";"""";"""";"""";06/07/2021 09:49;93.105.177.91;Mozilla/5.0 (Windows NT 10.0;;;;;
141;1;"""";"""";"""";"""";"""";sampler;335;910174;0.0-4.0-331.0;"""";"""";"""";"""";"""";"""";"""";"""";"""";"""";06/07/2021 09:49;93.105.177.91;Mozilla/5.0 (Windows NT 10.0;;;;;
141;1;"""";"""";"""";"""";"""";sampler;336;910174;0.0-4.0-332.0;"""";"""";"""";"""";"""";"""";"""";"""";"""";"""";06/07/2021 09:49;93.105.177.91;Mozilla/5.0 (Windows NT 10.0;;;;;
141;1;"""";"""";"""";"""";"""";sampler;337;910175;0.0-4.0-333.0;"""";"""";"""";"""";"""";"""";"""";"""";"""";"""";06/07/2021 09:49;93.105.177.91;Mozilla/5.0 (Windows NT 10.0;;;;;
141;1;"""";"""";"""";"""";"""";sampler;338;910175;0.0-4.0-334.0;"""";"""";"""";"""";"""";"""";"""";"""";"""";"""";06/07/2021 09:49;93.105.177.91;Mozilla/5.0 (Windows NT 10.0;;;;;
141;1;"""";"""";"""";"""";"""";sampler;339;910175;0.0-4.0-335.0;"""";"""";"""";"""";"""";"""";"""";"""";"""";"""";06/07/2021 09:49;93.105.177.91;Mozilla/5.0 (Windows NT 10.0;;;;;
141;1;"""";"""";"""";"""";"""";sampler;340;910175;0.0-4.0-336.0;"""";"""";"""";"""";"""";"""";"""";"""";"""";"""";06/07/2021 09:49;93.105.177.91;Mozilla/5.0 (Windows NT 10.0;;;;;
141;1;"""";"""";"""";"""";"""";sampler;341;910175;0.0-4.0-337.0;"""";"""";"""";"""";"""";"""";"""";"""";"""";"""";06/07/2021 09:49;93.105.177.91;Mozilla/5.0 (Windows NT 10.0;;;;;
141;1;"""";"""";"""";"""";"""";sampler;342;910176;0.0-4.0-338.0;"""";"""";"""";"""";"""";"""";"""";"""";"""";"""";06/07/2021 09:49;93.105.177.91;Mozilla/5.0 (Windows NT 10.0;;;;;
141;1;"""";"""";"""";"""";"""";sampler;343;910176;0.0-4.0-339.0;"""";"""";"""";"""";"""";"""";"""";"""";"""";"""";06/07/2021 09:49;93.105.177.91;Mozilla/5.0 (Windows NT 10.0;;;;;
141;1;"""";"""";"""";"""";"""";sampler;344;910176;0.0-4.0-340.0;"""";"""";"""";"""";"""";"""";"""";"""";"""";"""";06/07/2021 09:49;93.105.177.91;Mozilla/5.0 (Windows NT 10.0;;;;;
141;1;"""";"""";"""";"""";"""";sampler;345;910176;0.0-4.0-341.0;"""";"""";"""";"""";"""";"""";"""";"""";"""";"""";06/07/2021 09:49;93.105.177.91;Mozilla/5.0 (Windows NT 10.0;;;;;
141;1;"""";"""";"""";"""";"""";sampler;346;910176;0.0-4.0-342.0;"""";"""";"""";"""";"""";"""";"""";"""";"""";"""";06/07/2021 09:49;93.105.177.91;Mozilla/5.0 (Windows NT 10.0;;;;;
141;1;"""";"""";"""";"""";"""";sampler;347;910176;0.0-4.0-343.0;"""";"""";"""";"""";"""";"""";"""";"""";"""";"""";06/07/2021 09:49;93.105.177.91;Mozilla/5.0 (Windows NT 10.0;;;;;
141;1;"""";"""";"""";"""";"""";sampler;348;910176;0.0-4.0-344.0;"""";"""";"""";"""";"""";"""";"""";"""";"""";"""";06/07/2021 09:49;93.105.177.91;Mozilla/5.0 (Windows NT 10.0;;;;;
141;1;"""";"""";"""";"""";"""";sampler;349;910176;0.0-4.0-345.0;"""";"""";"""";"""";"""";"""";"""";"""";"""";"""";06/07/2021 09:49;93.105.177.91;Mozilla/5.0 (Windows NT 10.0;;;;;
141;1;"""";"""";"""";"""";"""";sampler;350;910176;0.0-4.0-346.0;"""";"""";"""";"""";"""";"""";"""";"""";"""";"""";06/07/2021 09:49;93.105.177.91;Mozilla/5.0 (Windows NT 10.0;;;;;
141;1;"""";"""";"""";"""";"""";sampler;351;910176;0.0-4.0-347.0;"""";"""";"""";"""";"""";"""";"""";"""";"""";"""";06/07/2021 09:49;93.105.177.91;Mozilla/5.0 (Windows NT 10.0;;;;;
141;1;"""";"""";"""";"""";"""";sampler;352;910177;0.0-4.0-348.0;"""";"""";"""";"""";"""";"""";"""";"""";"""";"""";06/07/2021 09:49;93.105.177.91;Mozilla/5.0 (Windows NT 10.0;;;;;
141;1;"""";"""";"""";"""";"""";sampler;353;910177;0.0-4.0-349.0;"""";"""";"""";"""";"""";"""";"""";"""";"""";"""";06/07/2021 09:49;93.105.177.91;Mozilla/5.0 (Windows NT 10.0;;;;;
141;1;"""";"""";"""";"""";"""";sampler;354;910177;0.0-4.0-350.0;"""";"""";"""";"""";"""";"""";"""";"""";"""";"""";06/07/2021 09:49;93.105.177.91;Mozilla/5.0 (Windows NT 10.0;;;;;
141;1;"""";"""";"""";"""";"""";sampler;355;910177;0.0-4.0-351.0;"""";"""";"""";"""";"""";"""";"""";"""";"""";"""";06/07/2021 09:49;93.105.177.91;Mozilla/5.0 (Windows NT 10.0;;;;;
141;1;"""";"""";"""";"""";"""";sampler;356;910177;0.0-4.0-352.0;"""";"""";"""";"""";"""";"""";"""";"""";"""";"""";06/07/2021 09:49;93.105.177.91;Mozilla/5.0 (Windows NT 10.0;;;;;
141;1;"""";"""";"""";"""";"""";sampler;357;910177;0.0-4.0-353.0;"""";"""";"""";"""";"""";"""";"""";"""";"""";"""";06/07/2021 09:49;93.105.177.91;Mozilla/5.0 (Windows NT 10.0;;;;;
141;1;"""";"""";"""";"""";"""";sampler;358;910177;0.0-4.0-354.0;"""";"""";"""";"""";"""";"""";"""";"""";"""";"""";06/07/2021 09:49;93.105.177.91;Mozilla/5.0 (Windows NT 10.0;;;;;
141;1;"""";"""";"""";"""";"""";sampler;359;910177;0.0-4.0-355.0;"""";"""";"""";"""";"""";"""";"""";"""";"""";"""";06/07/2021 09:49;93.105.177.91;Mozilla/5.0 (Windows NT 10.0;;;;;
141;1;"""";"""";"""";"""";"""";sampler;360;910177;0.0-4.0-356.0;"""";"""";"""";"""";"""";"""";"""";"""";"""";"""";06/07/2021 09:49;93.105.177.91;Mozilla/5.0 (Windows NT 10.0;;;;;
141;1;"""";"""";"""";"""";"""";sampler;361;910178;0.0-4.0-357.0;"""";"""";"""";"""";"""";"""";"""";"""";"""";"""";06/07/2021 09:49;93.105.177.91;Mozilla/5.0 (Windows NT 10.0;;;;;
141;1;"""";"""";"""";"""";"""";sampler;362;910178;0.0-4.0-358.0;"""";"""";"""";"""";"""";"""";"""";"""";"""";"""";06/07/2021 09:49;93.105.177.91;Mozilla/5.0 (Windows NT 10.0;;;;;
141;1;"""";"""";"""";"""";"""";sampler;363;910178;0.0-4.0-359.0;"""";"""";"""";"""";"""";"""";"""";"""";"""";"""";06/07/2021 09:49;93.105.177.91;Mozilla/5.0 (Windows NT 10.0;;;;;
141;1;"""";"""";"""";"""";"""";sampler;364;910178;0.0-4.0-360.0;"""";"""";"""";"""";"""";"""";"""";"""";"""";"""";06/07/2021 09:49;93.105.177.91;Mozilla/5.0 (Windows NT 10.0;;;;;
141;1;"""";"""";"""";"""";"""";sampler;365;910178;0.0-4.0-361.0;"""";"""";"""";"""";"""";"""";"""";"""";"""";"""";06/07/2021 09:49;93.105.177.91;Mozilla/5.0 (Windows NT 10.0;;;;;
141;1;"""";"""";"""";"""";"""";sampler;366;910178;0.0-4.0-362.0;"""";"""";"""";"""";"""";"""";"""";"""";"""";"""";06/07/2021 09:49;93.105.177.91;Mozilla/5.0 (Windows NT 10.0;;;;;
141;1;"""";"""";"""";"""";"""";sampler;367;910178;0.0-4.0-363.0;"""";"""";"""";"""";"""";"""";"""";"""";"""";"""";06/07/2021 09:49;93.105.177.91;Mozilla/5.0 (Windows NT 10.0;;;;;
141;1;"""";"""";"""";"""";"""";sampler;368;910178;0.0-4.0-364.0;"""";"""";"""";"""";"""";"""";"""";"""";"""";"""";06/07/2021 09:49;93.105.177.91;Mozilla/5.0 (Windows NT 10.0;;;;;
141;1;"""";"""";"""";"""";"""";sampler;369;910178;0.0-4.0-365.0;"""";"""";"""";"""";"""";"""";"""";"""";"""";"""";06/07/2021 09:49;93.105.177.91;Mozilla/5.0 (Windows NT 10.0;;;;;
141;1;"""";"""";"""";"""";"""";sampler;370;910179;0.0-4.0-366.0;"""";"""";"""";"""";"""";"""";"""";"""";"""";"""";06/07/2021 09:49;93.105.177.91;Mozilla/5.0 (Windows NT 10.0;;;;;
141;1;"""";"""";"""";"""";"""";sampler;371;910179;0.0-4.0-367.0;"""";"""";"""";"""";"""";"""";"""";"""";"""";"""";06/07/2021 09:49;93.105.177.91;Mozilla/5.0 (Windows NT 10.0;;;;;
141;1;"""";"""";"""";"""";"""";sampler;372;910179;0.0-4.0-368.0;"""";"""";"""";"""";"""";"""";"""";"""";"""";"""";06/07/2021 09:49;93.105.177.91;Mozilla/5.0 (Windows NT 10.0;;;;;
141;1;"""";"""";"""";"""";"""";sampler;373;910180;0.0-4.0-369.0;"""";"""";"""";"""";"""";"""";"""";"""";"""";"""";06/07/2021 09:49;93.105.177.91;Mozilla/5.0 (Windows NT 10.0;;;;;
141;1;"""";"""";"""";"""";"""";sampler;374;910180;0.0-4.0-370.0;"""";"""";"""";"""";"""";"""";"""";"""";"""";"""";06/07/2021 09:49;93.105.177.91;Mozilla/5.0 (Windows NT 10.0;;;;;
141;1;"""";"""";"""";"""";"""";sampler;375;910180;0.0-4.0-371.0;"""";"""";"""";"""";"""";"""";"""";"""";"""";"""";06/07/2021 09:49;93.105.177.91;Mozilla/5.0 (Windows NT 10.0;;;;;
141;1;"""";"""";"""";"""";"""";sampler;376;910180;0.0-4.0-372.0;"""";"""";"""";"""";"""";"""";"""";"""";"""";"""";06/07/2021 09:49;93.105.177.91;Mozilla/5.0 (Windows NT 10.0;;;;;
141;1;"""";"""";"""";"""";"""";sampler;377;910180;0.0-4.0-373.0;"""";"""";"""";"""";"""";"""";"""";"""";"""";"""";06/07/2021 09:49;93.105.177.91;Mozilla/5.0 (Windows NT 10.0;;;;;
141;1;"""";"""";"""";"""";"""";sampler;378;910180;0.0-4.0-374.0;"""";"""";"""";"""";"""";"""";"""";"""";"""";"""";06/07/2021 09:49;93.105.177.91;Mozilla/5.0 (Windows NT 10.0;;;;;
141;1;"""";"""";"""";"""";"""";sampler;379;910180;0.0-4.0-375.0;"""";"""";"""";"""";"""";"""";"""";"""";"""";"""";06/07/2021 09:49;93.105.177.91;Mozilla/5.0 (Windows NT 10.0;;;;;
141;1;"""";"""";"""";"""";"""";sampler;380;910180;0.0-4.0-376.0;"""";"""";"""";"""";"""";"""";"""";"""";"""";"""";06/07/2021 09:49;93.105.177.91;Mozilla/5.0 (Windows NT 10.0;;;;;
141;1;"""";"""";"""";"""";"""";sampler;381;910181;0.0-4.0-377.0;"""";"""";"""";"""";"""";"""";"""";"""";"""";"""";06/07/2021 09:49;93.105.177.91;Mozilla/5.0 (Windows NT 10.0;;;;;
141;1;"""";"""";"""";"""";"""";sampler;382;910181;0.0-4.0-378.0;"""";"""";"""";"""";"""";"""";"""";"""";"""";"""";06/07/2021 09:49;93.105.177.91;Mozilla/5.0 (Windows NT 10.0;;;;;
141;1;"""";"""";"""";"""";"""";sampler;383;910181;0.0-4.0-379.0;"""";"""";"""";"""";"""";"""";"""";"""";"""";"""";06/07/2021 09:49;93.105.177.91;Mozilla/5.0 (Windows NT 10.0;;;;;
141;1;"""";"""";"""";"""";"""";sampler;384;910181;0.0-4.0-380.0;"""";"""";"""";"""";"""";"""";"""";"""";"""";"""";06/07/2021 09:49;93.105.177.91;Mozilla/5.0 (Windows NT 10.0;;;;;
141;1;"""";"""";"""";"""";"""";sampler;385;910181;0.0-4.0-381.0;"""";"""";"""";"""";"""";"""";"""";"""";"""";"""";06/07/2021 09:49;93.105.177.91;Mozilla/5.0 (Windows NT 10.0;;;;;
141;1;"""";"""";"""";"""";"""";sampler;386;910181;0.0-4.0-382.0;"""";"""";"""";"""";"""";"""";"""";"""";"""";"""";06/07/2021 09:49;93.105.177.91;Mozilla/5.0 (Windows NT 10.0;;;;;
141;1;"""";"""";"""";"""";"""";sampler;387;910181;0.0-4.0-383.0;"""";"""";"""";"""";"""";"""";"""";"""";"""";"""";06/07/2021 09:49;93.105.177.91;Mozilla/5.0 (Windows NT 10.0;;;;;
141;1;"""";"""";"""";"""";"""";sampler;388;910181;0.0-4.0-384.0;"""";"""";"""";"""";"""";"""";"""";"""";"""";"""";06/07/2021 09:49;93.105.177.91;Mozilla/5.0 (Windows NT 10.0;;;;;
141;1;"""";"""";"""";"""";"""";sampler;389;910181;0.0-4.0-385.0;"""";"""";"""";"""";"""";"""";"""";"""";"""";"""";06/07/2021 09:49;93.105.177.91;Mozilla/5.0 (Windows NT 10.0;;;;;
141;1;"""";"""";"""";"""";"""";sampler;390;910181;0.0-4.0-386.0;"""";"""";"""";"""";"""";"""";"""";"""";"""";"""";06/07/2021 09:49;93.105.177.91;Mozilla/5.0 (Windows NT 10.0;;;;;
141;1;"""";"""";"""";"""";"""";sampler;391;910182;0.0-4.0-387.0;"""";"""";"""";"""";"""";"""";"""";"""";"""";"""";06/07/2021 09:49;93.105.177.91;Mozilla/5.0 (Windows NT 10.0;;;;;
141;1;"""";"""";"""";"""";"""";sampler;392;910182;0.0-4.0-388.0;"""";"""";"""";"""";"""";"""";"""";"""";"""";"""";06/07/2021 09:49;93.105.177.91;Mozilla/5.0 (Windows NT 10.0;;;;;
141;1;"""";"""";"""";"""";"""";sampler;393;910182;0.0-4.0-389.0;"""";"""";"""";"""";"""";"""";"""";"""";"""";"""";06/07/2021 09:49;93.105.177.91;Mozilla/5.0 (Windows NT 10.0;;;;;
141;1;"""";"""";"""";"""";"""";sampler;394;910182;0.0-4.0-390.0;"""";"""";"""";"""";"""";"""";"""";"""";"""";"""";06/07/2021 09:49;93.105.177.91;Mozilla/5.0 (Windows NT 10.0;;;;;
141;1;"""";"""";"""";"""";"""";sampler;395;910182;0.0-4.0-391.0;"""";"""";"""";"""";"""";"""";"""";"""";"""";"""";06/07/2021 09:49;93.105.177.91;Mozilla/5.0 (Windows NT 10.0;;;;;
141;1;"""";"""";"""";"""";"""";sampler;396;910182;0.0-4.0-392.0;"""";"""";"""";"""";"""";"""";"""";"""";"""";"""";06/07/2021 09:49;93.105.177.91;Mozilla/5.0 (Windows NT 10.0;;;;;
141;1;"""";"""";"""";"""";"""";sampler;397;910182;0.0-4.0-393.0;"""";"""";"""";"""";"""";"""";"""";"""";"""";"""";06/07/2021 09:49;93.105.177.91;Mozilla/5.0 (Windows NT 10.0;;;;;
141;1;"""";"""";"""";"""";"""";sampler;398;910182;0.0-4.0-394.0;"""";"""";"""";"""";"""";"""";"""";"""";"""";"""";06/07/2021 09:49;93.105.177.91;Mozilla/5.0 (Windows NT 10.0;;;;;
141;1;"""";"""";"""";"""";"""";sampler;399;910183;0.0-4.0-395.0;"""";"""";"""";"""";"""";"""";"""";"""";"""";"""";06/07/2021 09:49;93.105.177.91;Mozilla/5.0 (Windows NT 10.0;;;;;
141;1;"""";"""";"""";"""";"""";sampler;400;910183;0.0-4.0-396.0;"""";"""";"""";"""";"""";"""";"""";"""";"""";"""";06/07/2021 09:49;93.105.177.91;Mozilla/5.0 (Windows NT 10.0;;;;;
141;1;"""";"""";"""";"""";"""";sampler;401;910183;0.0-4.0-397.0;"""";"""";"""";"""";"""";"""";"""";"""";"""";"""";06/07/2021 09:49;93.105.177.91;Mozilla/5.0 (Windows NT 10.0;;;;;
141;1;"""";"""";"""";"""";"""";sampler;402;910183;0.0-4.0-398.0;"""";"""";"""";"""";"""";"""";"""";"""";"""";"""";06/07/2021 09:49;93.105.177.91;Mozilla/5.0 (Windows NT 10.0;;;;;
141;1;"""";"""";"""";"""";"""";sampler;403;910183;0.0-4.0-399.0;"""";"""";"""";"""";"""";"""";"""";"""";"""";"""";06/07/2021 09:49;93.105.177.91;Mozilla/5.0 (Windows NT 10.0;;;;;
141;1;"""";"""";"""";"""";"""";sampler;404;910183;0.0-4.0-400.0;"""";"""";"""";"""";"""";"""";"""";"""";"""";"""";06/07/2021 09:49;93.105.177.91;Mozilla/5.0 (Windows NT 10.0;;;;;
141;1;"""";"""";"""";"""";"""";sampler;405;910183;0.0-4.0-401.0;"""";"""";"""";"""";"""";"""";"""";"""";"""";"""";06/07/2021 09:49;93.105.177.91;Mozilla/5.0 (Windows NT 10.0;;;;;
141;1;"""";"""";"""";"""";"""";sampler;406;910183;0.0-4.0-402.0;"""";"""";"""";"""";"""";"""";"""";"""";"""";"""";06/07/2021 09:49;93.105.177.91;Mozilla/5.0 (Windows NT 10.0;;;;;
141;1;"""";"""";"""";"""";"""";sampler;407;910184;0.0-4.0-403.0;"""";"""";"""";"""";"""";"""";"""";"""";"""";"""";06/07/2021 09:49;93.105.177.91;Mozilla/5.0 (Windows NT 10.0;;;;;
141;1;"""";"""";"""";"""";"""";sampler;408;910184;0.0-4.0-404.0;"""";"""";"""";"""";"""";"""";"""";"""";"""";"""";06/07/2021 09:49;93.105.177.91;Mozilla/5.0 (Windows NT 10.0;;;;;
141;1;"""";"""";"""";"""";"""";sampler;409;910184;0.0-4.0-405.0;"""";"""";"""";"""";"""";"""";"""";"""";"""";"""";06/07/2021 09:49;93.105.177.91;Mozilla/5.0 (Windows NT 10.0;;;;;
141;1;"""";"""";"""";"""";"""";sampler;410;910184;0.0-4.0-406.0;"""";"""";"""";"""";"""";"""";"""";"""";"""";"""";06/07/2021 09:49;93.105.177.91;Mozilla/5.0 (Windows NT 10.0;;;;;
141;1;"""";"""";"""";"""";"""";sampler;411;910184;0.0-4.0-407.0;"""";"""";"""";"""";"""";"""";"""";"""";"""";"""";06/07/2021 09:49;93.105.177.91;Mozilla/5.0 (Windows NT 10.0;;;;;
141;1;"""";"""";"""";"""";"""";sampler;412;910184;0.0-4.0-408.0;"""";"""";"""";"""";"""";"""";"""";"""";"""";"""";06/07/2021 09:49;93.105.177.91;Mozilla/5.0 (Windows NT 10.0;;;;;
141;1;"""";"""";"""";"""";"""";sampler;413;910184;0.0-4.0-409.0;"""";"""";"""";"""";"""";"""";"""";"""";"""";"""";06/07/2021 09:49;93.105.177.91;Mozilla/5.0 (Windows NT 10.0;;;;;
141;1;"""";"""";"""";"""";"""";sampler;414;910184;0.0-4.0-410.0;"""";"""";"""";"""";"""";"""";"""";"""";"""";"""";06/07/2021 09:49;93.105.177.91;Mozilla/5.0 (Windows NT 10.0;;;;;
141;1;"""";"""";"""";"""";"""";sampler;415;910184;0.0-4.0-411.0;"""";"""";"""";"""";"""";"""";"""";"""";"""";"""";06/07/2021 09:49;93.105.177.91;Mozilla/5.0 (Windows NT 10.0;;;;;
141;1;"""";"""";"""";"""";"""";sampler;416;910185;0.0-4.0-412.0;"""";"""";"""";"""";"""";"""";"""";"""";"""";"""";06/07/2021 09:49;93.105.177.91;Mozilla/5.0 (Windows NT 10.0;;;;;
141;1;"""";"""";"""";"""";"""";sampler;417;910185;0.0-4.0-413.0;"""";"""";"""";"""";"""";"""";"""";"""";"""";"""";06/07/2021 09:49;93.105.177.91;Mozilla/5.0 (Windows NT 10.0;;;;;
141;1;"""";"""";"""";"""";"""";sampler;418;910185;0.0-4.0-414.0;"""";"""";"""";"""";"""";"""";"""";"""";"""";"""";06/07/2021 09:49;93.105.177.91;Mozilla/5.0 (Windows NT 10.0;;;;;
141;1;"""";"""";"""";"""";"""";sampler;419;910185;0.0-4.0-415.0;"""";"""";"""";"""";"""";"""";"""";"""";"""";"""";06/07/2021 09:49;93.105.177.91;Mozilla/5.0 (Windows NT 10.0;;;;;
141;1;"""";"""";"""";"""";"""";sampler;420;910185;0.0-4.0-416.0;"""";"""";"""";"""";"""";"""";"""";"""";"""";"""";06/07/2021 09:49;93.105.177.91;Mozilla/5.0 (Windows NT 10.0;;;;;
141;1;"""";"""";"""";"""";"""";sampler;421;910185;0.0-4.0-417.0;"""";"""";"""";"""";"""";"""";"""";"""";"""";"""";06/07/2021 09:49;93.105.177.91;Mozilla/5.0 (Windows NT 10.0;;;;;
141;1;"""";"""";"""";"""";"""";sampler;422;910185;0.0-4.0-418.0;"""";"""";"""";"""";"""";"""";"""";"""";"""";"""";06/07/2021 09:49;93.105.177.91;Mozilla/5.0 (Windows NT 10.0;;;;;
141;1;"""";"""";"""";"""";"""";sampler;423;910185;0.0-4.0-419.0;"""";"""";"""";"""";"""";"""";"""";"""";"""";"""";06/07/2021 09:49;93.105.177.91;Mozilla/5.0 (Windows NT 10.0;;;;;
141;1;"""";"""";"""";"""";"""";sampler;424;910185;0.0-4.0-420.0;"""";"""";"""";"""";"""";"""";"""";"""";"""";"""";06/07/2021 09:49;93.105.177.91;Mozilla/5.0 (Windows NT 10.0;;;;;
141;1;"""";"""";"""";"""";"""";sampler;425;910186;0.0-4.0-421.0;"""";"""";"""";"""";"""";"""";"""";"""";"""";"""";06/07/2021 09:49;93.105.177.91;Mozilla/5.0 (Windows NT 10.0;;;;;
141;1;"""";"""";"""";"""";"""";sampler;426;910186;0.0-4.0-422.0;"""";"""";"""";"""";"""";"""";"""";"""";"""";"""";06/07/2021 09:49;93.105.177.91;Mozilla/5.0 (Windows NT 10.0;;;;;
141;1;"""";"""";"""";"""";"""";sampler;427;910186;0.0-4.0-423.0;"""";"""";"""";"""";"""";"""";"""";"""";"""";"""";06/07/2021 09:49;93.105.177.91;Mozilla/5.0 (Windows NT 10.0;;;;;
141;1;"""";"""";"""";"""";"""";sampler;428;910186;0.0-4.0-424.0;"""";"""";"""";"""";"""";"""";"""";"""";"""";"""";06/07/2021 09:49;93.105.177.91;Mozilla/5.0 (Windows NT 10.0;;;;;
141;1;"""";"""";"""";"""";"""";sampler;429;910186;0.0-4.0-425.0;"""";"""";"""";"""";"""";"""";"""";"""";"""";"""";06/07/2021 09:49;93.105.177.91;Mozilla/5.0 (Windows NT 10.0;;;;;
141;1;"""";"""";"""";"""";"""";sampler;430;910187;0.0-4.0-426.0;"""";"""";"""";"""";"""";"""";"""";"""";"""";"""";06/07/2021 09:49;93.105.177.91;Mozilla/5.0 (Windows NT 10.0;;;;;
141;1;"""";"""";"""";"""";"""";sampler;431;910187;0.0-4.0-427.0;"""";"""";"""";"""";"""";"""";"""";"""";"""";"""";06/07/2021 09:49;93.105.177.91;Mozilla/5.0 (Windows NT 10.0;;;;;
141;1;"""";"""";"""";"""";"""";sampler;432;910187;0.0-4.0-428.0;"""";"""";"""";"""";"""";"""";"""";"""";"""";"""";06/07/2021 09:49;93.105.177.91;Mozilla/5.0 (Windows NT 10.0;;;;;
141;1;"""";"""";"""";"""";"""";sampler;433;910187;0.0-4.0-429.0;"""";"""";"""";"""";"""";"""";"""";"""";"""";"""";06/07/2021 09:49;93.105.177.91;Mozilla/5.0 (Windows NT 10.0;;;;;
141;1;"""";"""";"""";"""";"""";sampler;434;910187;0.0-4.0-430.0;"""";"""";"""";"""";"""";"""";"""";"""";"""";"""";06/07/2021 09:49;93.105.177.91;Mozilla/5.0 (Windows NT 10.0;;;;;
141;1;"""";"""";"""";"""";"""";sampler;435;910187;0.0-4.0-431.0;"""";"""";"""";"""";"""";"""";"""";"""";"""";"""";06/07/2021 09:49;93.105.177.91;Mozilla/5.0 (Windows NT 10.0;;;;;
141;1;"""";"""";"""";"""";"""";sampler;436;910188;0.0-4.0-432.0;"""";"""";"""";"""";"""";"""";"""";"""";"""";"""";06/07/2021 09:49;93.105.177.91;Mozilla/5.0 (Windows NT 10.0;;;;;
141;1;"""";"""";"""";"""";"""";sampler;437;910188;0.0-4.0-433.0;"""";"""";"""";"""";"""";"""";"""";"""";"""";"""";06/07/2021 09:49;93.105.177.91;Mozilla/5.0 (Windows NT 10.0;;;;;
141;1;"""";"""";"""";"""";"""";sampler;438;910188;0.0-4.0-434.0;"""";"""";"""";"""";"""";"""";"""";"""";"""";"""";06/07/2021 09:49;93.105.177.91;Mozilla/5.0 (Windows NT 10.0;;;;;
141;1;"""";"""";"""";"""";"""";sampler;439;910188;0.0-4.0-435.0;"""";"""";"""";"""";"""";"""";"""";"""";"""";"""";06/07/2021 09:49;93.105.177.91;Mozilla/5.0 (Windows NT 10.0;;;;;
141;1;"""";"""";"""";"""";"""";sampler;440;910188;0.0-4.0-436.0;"""";"""";"""";"""";"""";"""";"""";"""";"""";"""";06/07/2021 09:49;93.105.177.91;Mozilla/5.0 (Windows NT 10.0;;;;;
141;1;"""";"""";"""";"""";"""";sampler;441;910188;0.0-4.0-437.0;"""";"""";"""";"""";"""";"""";"""";"""";"""";"""";06/07/2021 09:49;93.105.177.91;Mozilla/5.0 (Windows NT 10.0;;;;;
141;1;"""";"""";"""";"""";"""";sampler;442;910188;0.0-4.0-438.0;"""";"""";"""";"""";"""";"""";"""";"""";"""";"""";06/07/2021 09:49;93.105.177.91;Mozilla/5.0 (Windows NT 10.0;;;;;
141;1;"""";"""";"""";"""";"""";sampler;443;910189;0.0-4.0-439.0;"""";"""";"""";"""";"""";"""";"""";"""";"""";"""";06/07/2021 09:49;93.105.177.91;Mozilla/5.0 (Windows NT 10.0;;;;;
141;1;"""";"""";"""";"""";"""";sampler;444;910189;0.0-4.0-440.0;"""";"""";"""";"""";"""";"""";"""";"""";"""";"""";06/07/2021 09:49;93.105.177.91;Mozilla/5.0 (Windows NT 10.0;;;;;
141;1;"""";"""";"""";"""";"""";sampler;445;910189;0.0-4.0-441.0;"""";"""";"""";"""";"""";"""";"""";"""";"""";"""";06/07/2021 09:49;93.105.177.91;Mozilla/5.0 (Windows NT 10.0;;;;;
141;1;"""";"""";"""";"""";"""";sampler;446;910189;0.0-4.0-442.0;"""";"""";"""";"""";"""";"""";"""";"""";"""";"""";06/07/2021 09:49;93.105.177.91;Mozilla/5.0 (Windows NT 10.0;;;;;
141;1;"""";"""";"""";"""";"""";sampler;447;910189;0.0-4.0-443.0;"""";"""";"""";"""";"""";"""";"""";"""";"""";"""";06/07/2021 09:49;93.105.177.91;Mozilla/5.0 (Windows NT 10.0;;;;;
141;1;"""";"""";"""";"""";"""";sampler;448;910189;0.0-4.0-444.0;"""";"""";"""";"""";"""";"""";"""";"""";"""";"""";06/07/2021 09:49;93.105.177.91;Mozilla/5.0 (Windows NT 10.0;;;;;
141;1;"""";"""";"""";"""";"""";sampler;449;910189;0.0-4.0-445.0;"""";"""";"""";"""";"""";"""";"""";"""";"""";"""";06/07/2021 09:49;93.105.177.91;Mozilla/5.0 (Windows NT 10.0;;;;;
141;1;"""";"""";"""";"""";"""";sampler;450;910189;0.0-4.0-446.0;"""";"""";"""";"""";"""";"""";"""";"""";"""";"""";06/07/2021 09:49;93.105.177.91;Mozilla/5.0 (Windows NT 10.0;;;;;
141;1;"""";"""";"""";"""";"""";sampler;451;910190;0.0-4.0-447.0;"""";"""";"""";"""";"""";"""";"""";"""";"""";"""";06/07/2021 09:49;93.105.177.91;Mozilla/5.0 (Windows NT 10.0;;;;;
141;1;"""";"""";"""";"""";"""";sampler;452;910190;0.0-4.0-448.0;"""";"""";"""";"""";"""";"""";"""";"""";"""";"""";06/07/2021 09:49;93.105.177.91;Mozilla/5.0 (Windows NT 10.0;;;;;
141;1;"""";"""";"""";"""";"""";sampler;453;910190;0.0-4.0-449.0;"""";"""";"""";"""";"""";"""";"""";"""";"""";"""";06/07/2021 09:49;93.105.177.91;Mozilla/5.0 (Windows NT 10.0;;;;;
141;1;"""";"""";"""";"""";"""";sampler;454;910190;0.0-4.0-450.0;"""";"""";"""";"""";"""";"""";"""";"""";"""";"""";06/07/2021 09:49;93.105.177.91;Mozilla/5.0 (Windows NT 10.0;;;;;
141;1;"""";"""";"""";"""";"""";sampler;455;910190;0.0-4.0-451.0;"""";"""";"""";"""";"""";"""";"""";"""";"""";"""";06/07/2021 09:49;93.105.177.91;Mozilla/5.0 (Windows NT 10.0;;;;;
141;1;"""";"""";"""";"""";"""";sampler;456;910190;0.0-4.0-452.0;"""";"""";"""";"""";"""";"""";"""";"""";"""";"""";06/07/2021 09:49;93.105.177.91;Mozilla/5.0 (Windows NT 10.0;;;;;
141;1;"""";"""";"""";"""";"""";sampler;457;910190;0.0-4.0-453.0;"""";"""";"""";"""";"""";"""";"""";"""";"""";"""";06/07/2021 09:49;93.105.177.91;Mozilla/5.0 (Windows NT 10.0;;;;;
141;1;"""";"""";"""";"""";"""";sampler;458;910190;0.0-4.0-454.0;"""";"""";"""";"""";"""";"""";"""";"""";"""";"""";06/07/2021 09:49;93.105.177.91;Mozilla/5.0 (Windows NT 10.0;;;;;
141;1;"""";"""";"""";"""";"""";sampler;459;910190;0.0-4.0-455.0;"""";"""";"""";"""";"""";"""";"""";"""";"""";"""";06/07/2021 09:49;93.105.177.91;Mozilla/5.0 (Windows NT 10.0;;;;;
141;1;"""";"""";"""";"""";"""";sampler;460;910191;0.0-4.0-456.0;"""";"""";"""";"""";"""";"""";"""";"""";"""";"""";06/07/2021 09:49;93.105.177.91;Mozilla/5.0 (Windows NT 10.0;;;;;
141;1;"""";"""";"""";"""";"""";sampler;461;910191;0.0-4.0-457.0;"""";"""";"""";"""";"""";"""";"""";"""";"""";"""";06/07/2021 09:49;93.105.177.91;Mozilla/5.0 (Windows NT 10.0;;;;;
141;1;"""";"""";"""";"""";"""";sampler;462;910191;0.0-4.0-458.0;"""";"""";"""";"""";"""";"""";"""";"""";"""";"""";06/07/2021 09:49;93.105.177.91;Mozilla/5.0 (Windows NT 10.0;;;;;
141;1;"""";"""";"""";"""";"""";sampler;463;910191;0.0-4.0-459.0;"""";"""";"""";"""";"""";"""";"""";"""";"""";"""";06/07/2021 09:49;93.105.177.91;Mozilla/5.0 (Windows NT 10.0;;;;;
141;1;"""";"""";"""";"""";"""";sampler;464;910191;0.0-4.0-460.0;"""";"""";"""";"""";"""";"""";"""";"""";"""";"""";06/07/2021 09:49;93.105.177.91;Mozilla/5.0 (Windows NT 10.0;;;;;
141;1;"""";"""";"""";"""";"""";sampler;465;910191;0.0-4.0-461.0;"""";"""";"""";"""";"""";"""";"""";"""";"""";"""";06/07/2021 09:49;93.105.177.91;Mozilla/5.0 (Windows NT 10.0;;;;;
141;1;"""";"""";"""";"""";"""";sampler;466;910191;0.0-4.0-462.0;"""";"""";"""";"""";"""";"""";"""";"""";"""";"""";06/07/2021 09:49;93.105.177.91;Mozilla/5.0 (Windows NT 10.0;;;;;
141;1;"""";"""";"""";"""";"""";sampler;467;910191;0.0-4.0-463.0;"""";"""";"""";"""";"""";"""";"""";"""";"""";"""";06/07/2021 09:49;93.105.177.91;Mozilla/5.0 (Windows NT 10.0;;;;;
141;1;"""";"""";"""";"""";"""";sampler;468;910192;0.0-4.0-464.0;"""";"""";"""";"""";"""";"""";"""";"""";"""";"""";06/07/2021 09:49;93.105.177.91;Mozilla/5.0 (Windows NT 10.0;;;;;
141;1;"""";"""";"""";"""";"""";sampler;469;910192;0.0-4.0-465.0;"""";"""";"""";"""";"""";"""";"""";"""";"""";"""";06/07/2021 09:49;93.105.177.91;Mozilla/5.0 (Windows NT 10.0;;;;;
141;1;"""";"""";"""";"""";"""";sampler;470;910192;0.0-4.0-466.0;"""";"""";"""";"""";"""";"""";"""";"""";"""";"""";06/07/2021 09:49;93.105.177.91;Mozilla/5.0 (Windows NT 10.0;;;;;
141;1;"""";"""";"""";"""";"""";sampler;471;910192;0.0-4.0-467.0;"""";"""";"""";"""";"""";"""";"""";"""";"""";"""";06/07/2021 09:49;93.105.177.91;Mozilla/5.0 (Windows NT 10.0;;;;;
141;1;"""";"""";"""";"""";"""";sampler;472;910192;0.0-4.0-468.0;"""";"""";"""";"""";"""";"""";"""";"""";"""";"""";06/07/2021 09:49;93.105.177.91;Mozilla/5.0 (Windows NT 10.0;;;;;
141;1;"""";"""";"""";"""";"""";sampler;473;910192;0.0-4.0-469.0;"""";"""";"""";"""";"""";"""";"""";"""";"""";"""";06/07/2021 09:49;93.105.177.91;Mozilla/5.0 (Windows NT 10.0;;;;;
141;1;"""";"""";"""";"""";"""";sampler;474;910192;0.0-4.0-470.0;"""";"""";"""";"""";"""";"""";"""";"""";"""";"""";06/07/2021 09:49;93.105.177.91;Mozilla/5.0 (Windows NT 10.0;;;;;
141;1;"""";"""";"""";"""";"""";sampler;475;910192;0.0-4.0-471.0;"""";"""";"""";"""";"""";"""";"""";"""";"""";"""";06/07/2021 09:49;93.105.177.91;Mozilla/5.0 (Windows NT 10.0;;;;;
141;1;"""";"""";"""";"""";"""";sampler;476;910193;0.0-4.0-472.0;"""";"""";"""";"""";"""";"""";"""";"""";"""";"""";06/07/2021 09:49;93.105.177.91;Mozilla/5.0 (Windows NT 10.0;;;;;
141;1;"""";"""";"""";"""";"""";sampler;477;910193;0.0-4.0-473.0;"""";"""";"""";"""";"""";"""";"""";"""";"""";"""";06/07/2021 09:49;93.105.177.91;Mozilla/5.0 (Windows NT 10.0;;;;;
141;1;"""";"""";"""";"""";"""";sampler;478;910193;0.0-4.0-474.0;"""";"""";"""";"""";"""";"""";"""";"""";"""";"""";06/07/2021 09:49;93.105.177.91;Mozilla/5.0 (Windows NT 10.0;;;;;
141;1;"""";"""";"""";"""";"""";sampler;479;910193;0.0-4.0-475.0;"""";"""";"""";"""";"""";"""";"""";"""";"""";"""";06/07/2021 09:49;93.105.177.91;Mozilla/5.0 (Windows NT 10.0;;;;;
141;1;"""";"""";"""";"""";"""";sampler;480;910193;0.0-4.0-476.0;"""";"""";"""";"""";"""";"""";"""";"""";"""";"""";06/07/2021 09:49;93.105.177.91;Mozilla/5.0 (Windows NT 10.0;;;;;
141;1;"""";"""";"""";"""";"""";sampler;481;910193;0.0-4.0-477.0;"""";"""";"""";"""";"""";"""";"""";"""";"""";"""";06/07/2021 09:49;93.105.177.91;Mozilla/5.0 (Windows NT 10.0;;;;;
141;1;"""";"""";"""";"""";"""";sampler;482;910193;0.0-4.0-478.0;"""";"""";"""";"""";"""";"""";"""";"""";"""";"""";06/07/2021 09:49;93.105.177.91;Mozilla/5.0 (Windows NT 10.0;;;;;
141;1;"""";"""";"""";"""";"""";sampler;483;910193;0.0-4.0-479.0;"""";"""";"""";"""";"""";"""";"""";"""";"""";"""";06/07/2021 09:49;93.105.177.91;Mozilla/5.0 (Windows NT 10.0;;;;;
141;1;"""";"""";"""";"""";"""";sampler;484;910195;0.0-4.0-480.0;"""";"""";"""";"""";"""";"""";"""";"""";"""";"""";06/07/2021 09:49;93.105.177.91;Mozilla/5.0 (Windows NT 10.0;;;;;
141;1;"""";"""";"""";"""";"""";sampler;485;910195;0.0-4.0-481.0;"""";"""";"""";"""";"""";"""";"""";"""";"""";"""";06/07/2021 09:49;93.105.177.91;Mozilla/5.0 (Windows NT 10.0;;;;;
141;1;"""";"""";"""";"""";"""";sampler;486;910195;0.0-4.0-482.0;"""";"""";"""";"""";"""";"""";"""";"""";"""";"""";06/07/2021 09:49;93.105.177.91;Mozilla/5.0 (Windows NT 10.0;;;;;
141;1;"""";"""";"""";"""";"""";sampler;487;910195;0.0-4.0-483.0;"""";"""";"""";"""";"""";"""";"""";"""";"""";"""";06/07/2021 09:49;93.105.177.91;Mozilla/5.0 (Windows NT 10.0;;;;;
141;1;"""";"""";"""";"""";"""";sampler;488;910195;0.0-4.0-484.0;"""";"""";"""";"""";"""";"""";"""";"""";"""";"""";06/07/2021 09:49;93.105.177.91;Mozilla/5.0 (Windows NT 10.0;;;;;
141;1;"""";"""";"""";"""";"""";sampler;489;910195;0.0-4.0-485.0;"""";"""";"""";"""";"""";"""";"""";"""";"""";"""";06/07/2021 09:49;93.105.177.91;Mozilla/5.0 (Windows NT 10.0;;;;;
141;1;"""";"""";"""";"""";"""";sampler;490;910195;0.0-4.0-486.0;"""";"""";"""";"""";"""";"""";"""";"""";"""";"""";06/07/2021 09:49;93.105.177.91;Mozilla/5.0 (Windows NT 10.0;;;;;
141;1;"""";"""";"""";"""";"""";sampler;491;910195;0.0-4.0-487.0;"""";"""";"""";"""";"""";"""";"""";"""";"""";"""";06/07/2021 09:49;93.105.177.91;Mozilla/5.0 (Windows NT 10.0;;;;;
141;1;"""";"""";"""";"""";"""";sampler;492;910196;0.0-4.0-488.0;"""";"""";"""";"""";"""";"""";"""";"""";"""";"""";06/07/2021 09:49;93.105.177.91;Mozilla/5.0 (Windows NT 10.0;;;;;
141;1;"""";"""";"""";"""";"""";sampler;493;910196;0.0-4.0-489.0;"""";"""";"""";"""";"""";"""";"""";"""";"""";"""";06/07/2021 09:49;93.105.177.91;Mozilla/5.0 (Windows NT 10.0;;;;;
141;1;"""";"""";"""";"""";"""";sampler;494;910196;0.0-4.0-490.0;"""";"""";"""";"""";"""";"""";"""";"""";"""";"""";06/07/2021 09:49;93.105.177.91;Mozilla/5.0 (Windows NT 10.0;;;;;
141;1;"""";"""";"""";"""";"""";sampler;495;910196;0.0-4.0-491.0;"""";"""";"""";"""";"""";"""";"""";"""";"""";"""";06/07/2021 09:49;93.105.177.91;Mozilla/5.0 (Windows NT 10.0;;;;;
141;1;"""";"""";"""";"""";"""";sampler;496;910196;0.0-4.0-492.0;"""";"""";"""";"""";"""";"""";"""";"""";"""";"""";06/07/2021 09:49;93.105.177.91;Mozilla/5.0 (Windows NT 10.0;;;;;
141;1;"""";"""";"""";"""";"""";sampler;497;910196;0.0-4.0-493.0;"""";"""";"""";"""";"""";"""";"""";"""";"""";"""";06/07/2021 09:49;93.105.177.91;Mozilla/5.0 (Windows NT 10.0;;;;;
141;1;"""";"""";"""";"""";"""";sampler;498;910196;0.0-4.0-494.0;"""";"""";"""";"""";"""";"""";"""";"""";"""";"""";06/07/2021 09:49;93.105.177.91;Mozilla/5.0 (Windows NT 10.0;;;;;
141;1;"""";"""";"""";"""";"""";sampler;499;910196;0.0-4.0-495.0;"""";"""";"""";"""";"""";"""";"""";"""";"""";"""";06/07/2021 09:49;93.105.177.91;Mozilla/5.0 (Windows NT 10.0;;;;;
141;1;"""";"""";"""";"""";"""";sampler;500;910197;0.0-4.0-496.0;"""";"""";"""";"""";"""";"""";"""";"""";"""";"""";06/07/2021 09:49;93.105.177.91;Mozilla/5.0 (Windows NT 10.0;;;;;
141;1;"""";"""";"""";"""";"""";sampler;501;910197;0.0-4.0-497.0;"""";"""";"""";"""";"""";"""";"""";"""";"""";"""";06/07/2021 09:49;93.105.177.91;Mozilla/5.0 (Windows NT 10.0;;;;;
141;1;"""";"""";"""";"""";"""";sampler;502;910197;0.0-4.0-498.0;"""";"""";"""";"""";"""";"""";"""";"""";"""";"""";06/07/2021 09:49;93.105.177.91;Mozilla/5.0 (Windows NT 10.0;;;;;
141;1;"""";"""";"""";"""";"""";sampler;503;910197;0.0-4.0-499.0;"""";"""";"""";"""";"""";"""";"""";"""";"""";"""";06/07/2021 09:49;93.105.177.91;Mozilla/5.0 (Windows NT 10.0;;;;;
141;1;"""";"""";"""";"""";"""";sampler;504;910197;0.0-4.0-500.0;"""";"""";"""";"""";"""";"""";"""";"""";"""";"""";06/07/2021 09:49;93.105.177.91;Mozilla/5.0 (Windows NT 10.0;;;;;
141;1;"""";"""";"""";"""";"""";sampler;505;910197;0.0-4.0-501.0;"""";"""";"""";"""";"""";"""";"""";"""";"""";"""";06/07/2021 09:49;93.105.177.91;Mozilla/5.0 (Windows NT 10.0;;;;;
141;1;"""";"""";"""";"""";"""";sampler;506;910197;0.0-4.0-502.0;"""";"""";"""";"""";"""";"""";"""";"""";"""";"""";06/07/2021 09:49;93.105.177.91;Mozilla/5.0 (Windows NT 10.0;;;;;
141;1;"""";"""";"""";"""";"""";sampler;507;910197;0.0-4.0-503.0;"""";"""";"""";"""";"""";"""";"""";"""";"""";"""";06/07/2021 09:49;93.105.177.91;Mozilla/5.0 (Windows NT 10.0;;;;;
141;1;"""";"""";"""";"""";"""";sampler;508;910197;0.0-4.0-504.0;"""";"""";"""";"""";"""";"""";"""";"""";"""";"""";06/07/2021 09:49;93.105.177.91;Mozilla/5.0 (Windows NT 10.0;;;;;
141;1;"""";"""";"""";"""";"""";sampler;509;910198;0.0-4.0-505.0;"""";"""";"""";"""";"""";"""";"""";"""";"""";"""";06/07/2021 09:49;93.105.177.91;Mozilla/5.0 (Windows NT 10.0;;;;;
141;1;"""";"""";"""";"""";"""";sampler;510;910198;0.0-4.0-506.0;"""";"""";"""";"""";"""";"""";"""";"""";"""";"""";06/07/2021 09:49;93.105.177.91;Mozilla/5.0 (Windows NT 10.0;;;;;
141;1;"""";"""";"""";"""";"""";sampler;511;910198;0.0-4.0-507.0;"""";"""";"""";"""";"""";"""";"""";"""";"""";"""";06/07/2021 09:49;93.105.177.91;Mozilla/5.0 (Windows NT 10.0;;;;;
141;1;"""";"""";"""";"""";"""";sampler;512;910198;0.0-4.0-508.0;"""";"""";"""";"""";"""";"""";"""";"""";"""";"""";06/07/2021 09:49;93.105.177.91;Mozilla/5.0 (Windows NT 10.0;;;;;
141;1;"""";"""";"""";"""";"""";sampler;513;910198;0.0-4.0-509.0;"""";"""";"""";"""";"""";"""";"""";"""";"""";"""";06/07/2021 09:49;93.105.177.91;Mozilla/5.0 (Windows NT 10.0;;;;;
141;1;"""";"""";"""";"""";"""";sampler;514;910198;0.0-4.0-510.0;"""";"""";"""";"""";"""";"""";"""";"""";"""";"""";06/07/2021 09:49;93.105.177.91;Mozilla/5.0 (Windows NT 10.0;;;;;
141;1;"""";"""";"""";"""";"""";sampler;515;910199;0.0-4.0-511.0;"""";"""";"""";"""";"""";"""";"""";"""";"""";"""";06/07/2021 09:49;93.105.177.91;Mozilla/5.0 (Windows NT 10.0;;;;;
141;1;"""";"""";"""";"""";"""";sampler;516;910199;0.0-4.0-512.0;"""";"""";"""";"""";"""";"""";"""";"""";"""";"""";06/07/2021 09:49;93.105.177.91;Mozilla/5.0 (Windows NT 10.0;;;;;
141;1;"""";"""";"""";"""";"""";sampler;517;910199;0.0-4.0-513.0;"""";"""";"""";"""";"""";"""";"""";"""";"""";"""";06/07/2021 09:49;93.105.177.91;Mozilla/5.0 (Windows NT 10.0;;;;;
141;1;"""";"""";"""";"""";"""";sampler;518;910199;0.0-4.0-514.0;"""";"""";"""";"""";"""";"""";"""";"""";"""";"""";06/07/2021 09:49;93.105.177.91;Mozilla/5.0 (Windows NT 10.0;;;;;
141;1;"""";"""";"""";"""";"""";sampler;519;910199;0.0-4.0-515.0;"""";"""";"""";"""";"""";"""";"""";"""";"""";"""";06/07/2021 09:49;93.105.177.91;Mozilla/5.0 (Windows NT 10.0;;;;;
141;1;"""";"""";"""";"""";"""";sampler;520;910199;0.0-4.0-516.0;"""";"""";"""";"""";"""";"""";"""";"""";"""";"""";06/07/2021 09:49;93.105.177.91;Mozilla/5.0 (Windows NT 10.0;;;;;
141;1;"""";"""";"""";"""";"""";sampler;521;910199;0.0-4.0-517.0;"""";"""";"""";"""";"""";"""";"""";"""";"""";"""";06/07/2021 09:49;93.105.177.91;Mozilla/5.0 (Windows NT 10.0;;;;;
141;1;"""";"""";"""";"""";"""";sampler;522;910200;0.0-4.0-518.0;"""";"""";"""";"""";"""";"""";"""";"""";"""";"""";06/07/2021 09:49;93.105.177.91;Mozilla/5.0 (Windows NT 10.0;;;;;
141;1;"""";"""";"""";"""";"""";sampler;523;910200;0.0-4.0-519.0;"""";"""";"""";"""";"""";"""";"""";"""";"""";"""";06/07/2021 09:49;93.105.177.91;Mozilla/5.0 (Windows NT 10.0;;;;;
141;1;"""";"""";"""";"""";"""";sampler;524;910200;0.0-4.0-520.0;"""";"""";"""";"""";"""";"""";"""";"""";"""";"""";06/07/2021 09:49;93.105.177.91;Mozilla/5.0 (Windows NT 10.0;;;;;
141;1;"""";"""";"""";"""";"""";sampler;525;910200;0.0-4.0-521.0;"""";"""";"""";"""";"""";"""";"""";"""";"""";"""";06/07/2021 09:49;93.105.177.91;Mozilla/5.0 (Windows NT 10.0;;;;;
141;1;"""";"""";"""";"""";"""";sampler;526;910200;0.0-4.0-522.0;"""";"""";"""";"""";"""";"""";"""";"""";"""";"""";06/07/2021 09:49;93.105.177.91;Mozilla/5.0 (Windows NT 10.0;;;;;
141;1;"""";"""";"""";"""";"""";sampler;527;910200;0.0-4.0-523.0;"""";"""";"""";"""";"""";"""";"""";"""";"""";"""";06/07/2021 09:49;93.105.177.91;Mozilla/5.0 (Windows NT 10.0;;;;;
141;1;"""";"""";"""";"""";"""";sampler;528;910200;0.0-4.0-524.0;"""";"""";"""";"""";"""";"""";"""";"""";"""";"""";06/07/2021 09:49;93.105.177.91;Mozilla/5.0 (Windows NT 10.0;;;;;
141;1;"""";"""";"""";"""";"""";sampler;529;910200;0.0-4.0-525.0;"""";"""";"""";"""";"""";"""";"""";"""";"""";"""";06/07/2021 09:49;93.105.177.91;Mozilla/5.0 (Windows NT 10.0;;;;;
141;1;"""";"""";"""";"""";"""";sampler;530;910201;0.0-4.0-526.0;"""";"""";"""";"""";"""";"""";"""";"""";"""";"""";06/07/2021 09:49;93.105.177.91;Mozilla/5.0 (Windows NT 10.0;;;;;
141;1;"""";"""";"""";"""";"""";sampler;531;910201;0.0-4.0-527.0;"""";"""";"""";"""";"""";"""";"""";"""";"""";"""";06/07/2021 09:49;93.105.177.91;Mozilla/5.0 (Windows NT 10.0;;;;;
141;1;"""";"""";"""";"""";"""";sampler;532;910201;0.0-4.0-528.0;"""";"""";"""";"""";"""";"""";"""";"""";"""";"""";06/07/2021 09:49;93.105.177.91;Mozilla/5.0 (Windows NT 10.0;;;;;
141;1;"""";"""";"""";"""";"""";sampler;533;910202;0.0-4.0-529.0;"""";"""";"""";"""";"""";"""";"""";"""";"""";"""";06/07/2021 09:49;93.105.177.91;Mozilla/5.0 (Windows NT 10.0;;;;;
141;1;"""";"""";"""";"""";"""";sampler;534;910202;0.0-4.0-530.0;"""";"""";"""";"""";"""";"""";"""";"""";"""";"""";06/07/2021 09:49;93.105.177.91;Mozilla/5.0 (Windows NT 10.0;;;;;
141;1;"""";"""";"""";"""";"""";sampler;535;910202;0.0-4.0-531.0;"""";"""";"""";"""";"""";"""";"""";"""";"""";"""";06/07/2021 09:49;93.105.177.91;Mozilla/5.0 (Windows NT 10.0;;;;;
141;1;"""";"""";"""";"""";"""";sampler;536;910202;0.0-4.0-532.0;"""";"""";"""";"""";"""";"""";"""";"""";"""";"""";06/07/2021 09:49;93.105.177.91;Mozilla/5.0 (Windows NT 10.0;;;;;
141;1;"""";"""";"""";"""";"""";sampler;537;910203;0.0-4.0-533.0;"""";"""";"""";"""";"""";"""";"""";"""";"""";"""";06/07/2021 09:49;93.105.177.91;Mozilla/5.0 (Windows NT 10.0;;;;;
141;1;"""";"""";"""";"""";"""";sampler;538;910203;0.0-4.0-534.0;"""";"""";"""";"""";"""";"""";"""";"""";"""";"""";06/07/2021 09:49;93.105.177.91;Mozilla/5.0 (Windows NT 10.0;;;;;
141;1;"""";"""";"""";"""";"""";sampler;539;910203;0.0-4.0-535.0;"""";"""";"""";"""";"""";"""";"""";"""";"""";"""";06/07/2021 09:49;93.105.177.91;Mozilla/5.0 (Windows NT 10.0;;;;;
141;1;"""";"""";"""";"""";"""";sampler;540;910203;0.0-4.0-536.0;"""";"""";"""";"""";"""";"""";"""";"""";"""";"""";06/07/2021 09:49;93.105.177.91;Mozilla/5.0 (Windows NT 10.0;;;;;
141;1;"""";"""";"""";"""";"""";sampler;541;910203;0.0-4.0-537.0;"""";"""";"""";"""";"""";"""";"""";"""";"""";"""";06/07/2021 09:49;93.105.177.91;Mozilla/5.0 (Windows NT 10.0;;;;;
141;1;"""";"""";"""";"""";"""";sampler;542;910203;0.0-4.0-538.0;"""";"""";"""";"""";"""";"""";"""";"""";"""";"""";06/07/2021 09:49;93.105.177.91;Mozilla/5.0 (Windows NT 10.0;;;;;
141;1;"""";"""";"""";"""";"""";sampler;543;910203;0.0-4.0-539.0;"""";"""";"""";"""";"""";"""";"""";"""";"""";"""";06/07/2021 09:49;93.105.177.91;Mozilla/5.0 (Windows NT 10.0;;;;;
141;1;"""";"""";"""";"""";"""";sampler;544;910203;0.0-4.0-540.0;"""";"""";"""";"""";"""";"""";"""";"""";"""";"""";06/07/2021 09:49;93.105.177.91;Mozilla/5.0 (Windows NT 10.0;;;;;
141;1;"""";"""";"""";"""";"""";sampler;545;910204;0.0-4.0-541.0;"""";"""";"""";"""";"""";"""";"""";"""";"""";"""";06/07/2021 09:49;93.105.177.91;Mozilla/5.0 (Windows NT 10.0;;;;;
141;1;"""";"""";"""";"""";"""";sampler;546;910204;0.0-4.0-542.0;"""";"""";"""";"""";"""";"""";"""";"""";"""";"""";06/07/2021 09:49;93.105.177.91;Mozilla/5.0 (Windows NT 10.0;;;;;
141;1;"""";"""";"""";"""";"""";sampler;547;910204;0.0-4.0-543.0;"""";"""";"""";"""";"""";"""";"""";"""";"""";"""";06/07/2021 09:49;93.105.177.91;Mozilla/5.0 (Windows NT 10.0;;;;;
141;1;"""";"""";"""";"""";"""";sampler;548;910204;0.0-4.0-544.0;"""";"""";"""";"""";"""";"""";"""";"""";"""";"""";06/07/2021 09:49;93.105.177.91;Mozilla/5.0 (Windows NT 10.0;;;;;
141;1;"""";"""";"""";"""";"""";sampler;549;910204;0.0-4.0-545.0;"""";"""";"""";"""";"""";"""";"""";"""";"""";"""";06/07/2021 09:49;93.105.177.91;Mozilla/5.0 (Windows NT 10.0;;;;;
141;1;"""";"""";"""";"""";"""";sampler;550;910204;0.0-4.0-546.0;"""";"""";"""";"""";"""";"""";"""";"""";"""";"""";06/07/2021 09:49;93.105.177.91;Mozilla/5.0 (Windows NT 10.0;;;;;
141;1;"""";"""";"""";"""";"""";sampler;551;910204;0.0-4.0-547.0;"""";"""";"""";"""";"""";"""";"""";"""";"""";"""";06/07/2021 09:49;93.105.177.91;Mozilla/5.0 (Windows NT 10.0;;;;;
141;1;"""";"""";"""";"""";"""";sampler;552;910204;0.0-4.0-548.0;"""";"""";"""";"""";"""";"""";"""";"""";"""";"""";06/07/2021 09:49;93.105.177.91;Mozilla/5.0 (Windows NT 10.0;;;;;
141;1;"""";"""";"""";"""";"""";sampler;553;910205;0.0-4.0-549.0;"""";"""";"""";"""";"""";"""";"""";"""";"""";"""";06/07/2021 09:49;93.105.177.91;Mozilla/5.0 (Windows NT 10.0;;;;;
