run_id,condition,success,timeout,failed_images,failed_audio,failed_video,trial_type,trial_index,time_elapsed,internal_node_id,rt,stimulus,key_press,responses,view_history,correct,image_click,points,sd,points2,total_earn,button_pressed,recorded_at,ip,user_agent,device,browser,browser_version,platform,platform_version,source_code_version
190,1,true,false,"""","""","""",preload,0,587,0.0-0.0,"""","""","""","""","""","""","""","""","""","""","""","""","2021-08-09 16:18:49",71.230.126.129,"Mozilla/5.0 (Macintosh; Intel Mac OS X 10_15_7) AppleWebKit/537.36 (KHTML, like Gecko) Chrome/92.0.4515.107 Safari/537.36",Macintosh,Chrome,92.0.4515.107,"OS X",10_15_7,5f461dd6c139dd6b46c7596cbd57cd79
190,1,"""","""","""","""","""",html-keyboard-response,1,5007,0.0-1.0,4266,"<font size=15>Welcome to our experiment!</font><br><br><br><i> Press <b>space bar</b> to begin.</i>",32,"""","""","""","""","""","""","""","""","""","2021-08-09 16:18:49",71.230.126.129,"Mozilla/5.0 (Macintosh; Intel Mac OS X 10_15_7) AppleWebKit/537.36 (KHTML, like Gecko) Chrome/92.0.4515.107 Safari/537.36",Macintosh,Chrome,92.0.4515.107,"OS X",10_15_7,5f461dd6c139dd6b46c7596cbd57cd79
190,1,"""","""","""","""","""",survey-multi-choice,2,15557,0.0-2.0,10522,"""","""","{""Q0"":""Yes"",""Q1"":""Yes"",""Q2"":""Yes"",""Q3"":""Yes""}","""","""","""","""","""","""","""","""","2021-08-09 16:18:49",71.230.126.129,"Mozilla/5.0 (Macintosh; Intel Mac OS X 10_15_7) AppleWebKit/537.36 (KHTML, like Gecko) Chrome/92.0.4515.107 Safari/537.36",Macintosh,Chrome,92.0.4515.107,"OS X",10_15_7,5f461dd6c139dd6b46c7596cbd57cd79
190,1,"""","""","""","""","""",survey-html-form,3,26458,0.0-3.0,10889.300000011921,"""","""","{""gender"":""other"",""age"":""21"",""hand"":""right"",""mail"":""611151f93c25408e769a5926""}","""","""","""","""","""","""","""","""","2021-08-09 16:18:49",71.230.126.129,"Mozilla/5.0 (Macintosh; Intel Mac OS X 10_15_7) AppleWebKit/537.36 (KHTML, like Gecko) Chrome/92.0.4515.107 Safari/537.36",Macintosh,Chrome,92.0.4515.107,"OS X",10_15_7,5f461dd6c139dd6b46c7596cbd57cd79
190,1,true,"""","""","""","""",fullscreen,4,29771,0.0-4.0,"""","""","""","""","""","""","""","""","""","""","""","""","2021-08-09 16:18:49",71.230.126.129,"Mozilla/5.0 (Macintosh; Intel Mac OS X 10_15_7) AppleWebKit/537.36 (KHTML, like Gecko) Chrome/92.0.4515.107 Safari/537.36",Macintosh,Chrome,92.0.4515.107,"OS X",10_15_7,5f461dd6c139dd6b46c7596cbd57cd79
190,1,"""","""","""","""","""",multikey-instructions,5,157190,0.0-5.0,127415,"""","""","""","[{""page_index"":0,""viewing_time"":26651},{""page_index"":1,""viewing_time"":8207},{""page_index"":2,""viewing_time"":11278},{""page_index"":3,""viewing_time"":7302},{""page_index"":4,""viewing_time"":48517},{""page_index"":5,""viewing_time"":3954},{""page_index"":6,""viewing_time"":2230},{""page_index"":7,""viewing_time"":2751},{""page_index"":8,""viewing_time"":7002},{""page_index"":9,""viewing_time"":1607},{""page_index"":10,""viewing_time"":5885},{""page_index"":11,""viewing_time"":2029}]","""","""","""","""","""","""","""","2021-08-09 16:18:49",71.230.126.129,"Mozilla/5.0 (Macintosh; Intel Mac OS X 10_15_7) AppleWebKit/537.36 (KHTML, like Gecko) Chrome/92.0.4515.107 Safari/537.36",Macintosh,Chrome,92.0.4515.107,"OS X",10_15_7,5f461dd6c139dd6b46c7596cbd57cd79
190,1,"""","""","""","""","""",sampler,6,163463,0.0-6.0-0.0,5859,img/Cyan.png,"""","""","""",false,-1,6.151536965549205,5,"""","""","""","2021-08-09 16:18:49",71.230.126.129,"Mozilla/5.0 (Macintosh; Intel Mac OS X 10_15_7) AppleWebKit/537.36 (KHTML, like Gecko) Chrome/92.0.4515.107 Safari/537.36",Macintosh,Chrome,92.0.4515.107,"OS X",10_15_7,5f461dd6c139dd6b46c7596cbd57cd79
190,1,"""","""","""","""","""",sampler,7,165071,0.0-6.0-1.0,1188,img/Cyan.png,"""","""","""",false,-1,5.1657725954758344,5,"""","""","""","2021-08-09 16:18:49",71.230.126.129,"Mozilla/5.0 (Macintosh; Intel Mac OS X 10_15_7) AppleWebKit/537.36 (KHTML, like Gecko) Chrome/92.0.4515.107 Safari/537.36",Macintosh,Chrome,92.0.4515.107,"OS X",10_15_7,5f461dd6c139dd6b46c7596cbd57cd79
190,1,"""","""","""","""","""",sampler,8,167759,0.0-6.0-2.0,2270,img/Cyan.png,"""","""","""",false,-1,9.68552919974007,5,"""","""","""","2021-08-09 16:18:49",71.230.126.129,"Mozilla/5.0 (Macintosh; Intel Mac OS X 10_15_7) AppleWebKit/537.36 (KHTML, like Gecko) Chrome/92.0.4515.107 Safari/537.36",Macintosh,Chrome,92.0.4515.107,"OS X",10_15_7,5f461dd6c139dd6b46c7596cbd57cd79
190,1,"""","""","""","""","""",sampler,9,169050,0.0-6.0-3.0,872,img/Cyan.png,"""","""","""",false,-1,6.505191279427135,5,"""","""","""","2021-08-09 16:18:49",71.230.126.129,"Mozilla/5.0 (Macintosh; Intel Mac OS X 10_15_7) AppleWebKit/537.36 (KHTML, like Gecko) Chrome/92.0.4515.107 Safari/537.36",Macintosh,Chrome,92.0.4515.107,"OS X",10_15_7,5f461dd6c139dd6b46c7596cbd57cd79
190,1,"""","""","""","""","""",sampler,10,171934,0.0-6.0-4.0,2470,img/Cyan.png,"""","""","""",false,-1,-1.9892208397022806,5,"""","""","""","2021-08-09 16:18:49",71.230.126.129,"Mozilla/5.0 (Macintosh; Intel Mac OS X 10_15_7) AppleWebKit/537.36 (KHTML, like Gecko) Chrome/92.0.4515.107 Safari/537.36",Macintosh,Chrome,92.0.4515.107,"OS X",10_15_7,5f461dd6c139dd6b46c7596cbd57cd79
190,1,"""","""","""","""","""",sampler,11,171935,0.0-6.0-5.0,"""","""","""","""","""","""","""","""","""","""","""","""","2021-08-09 16:18:49",71.230.126.129,"Mozilla/5.0 (Macintosh; Intel Mac OS X 10_15_7) AppleWebKit/537.36 (KHTML, like Gecko) Chrome/92.0.4515.107 Safari/537.36",Macintosh,Chrome,92.0.4515.107,"OS X",10_15_7,5f461dd6c139dd6b46c7596cbd57cd79
190,1,"""","""","""","""","""",sampler,12,171935,0.0-6.0-6.0,"""","""","""","""","""","""","""","""","""","""","""","""","2021-08-09 16:18:49",71.230.126.129,"Mozilla/5.0 (Macintosh; Intel Mac OS X 10_15_7) AppleWebKit/537.36 (KHTML, like Gecko) Chrome/92.0.4515.107 Safari/537.36",Macintosh,Chrome,92.0.4515.107,"OS X",10_15_7,5f461dd6c139dd6b46c7596cbd57cd79
190,1,"""","""","""","""","""",sampler,13,171936,0.0-6.0-7.0,"""","""","""","""","""","""","""","""","""","""","""","""","2021-08-09 16:18:49",71.230.126.129,"Mozilla/5.0 (Macintosh; Intel Mac OS X 10_15_7) AppleWebKit/537.36 (KHTML, like Gecko) Chrome/92.0.4515.107 Safari/537.36",Macintosh,Chrome,92.0.4515.107,"OS X",10_15_7,5f461dd6c139dd6b46c7596cbd57cd79
190,1,"""","""","""","""","""",sampler,14,171936,0.0-6.0-8.0,"""","""","""","""","""","""","""","""","""","""","""","""","2021-08-09 16:18:49",71.230.126.129,"Mozilla/5.0 (Macintosh; Intel Mac OS X 10_15_7) AppleWebKit/537.36 (KHTML, like Gecko) Chrome/92.0.4515.107 Safari/537.36",Macintosh,Chrome,92.0.4515.107,"OS X",10_15_7,5f461dd6c139dd6b46c7596cbd57cd79
190,1,"""","""","""","""","""",sampler,15,171936,0.0-6.0-9.0,"""","""","""","""","""","""","""","""","""","""","""","""","2021-08-09 16:18:49",71.230.126.129,"Mozilla/5.0 (Macintosh; Intel Mac OS X 10_15_7) AppleWebKit/537.36 (KHTML, like Gecko) Chrome/92.0.4515.107 Safari/537.36",Macintosh,Chrome,92.0.4515.107,"OS X",10_15_7,5f461dd6c139dd6b46c7596cbd57cd79
190,1,"""","""","""","""","""",sampler,16,171936,0.0-6.0-10.0,"""","""","""","""","""","""","""","""","""","""","""","""","2021-08-09 16:18:49",71.230.126.129,"Mozilla/5.0 (Macintosh; Intel Mac OS X 10_15_7) AppleWebKit/537.36 (KHTML, like Gecko) Chrome/92.0.4515.107 Safari/537.36",Macintosh,Chrome,92.0.4515.107,"OS X",10_15_7,5f461dd6c139dd6b46c7596cbd57cd79
190,1,"""","""","""","""","""",sampler,17,171936,0.0-6.0-11.0,"""","""","""","""","""","""","""","""","""","""","""","""","2021-08-09 16:18:49",71.230.126.129,"Mozilla/5.0 (Macintosh; Intel Mac OS X 10_15_7) AppleWebKit/537.36 (KHTML, like Gecko) Chrome/92.0.4515.107 Safari/537.36",Macintosh,Chrome,92.0.4515.107,"OS X",10_15_7,5f461dd6c139dd6b46c7596cbd57cd79
190,1,"""","""","""","""","""",sampler,18,171937,0.0-6.0-12.0,"""","""","""","""","""","""","""","""","""","""","""","""","2021-08-09 16:18:49",71.230.126.129,"Mozilla/5.0 (Macintosh; Intel Mac OS X 10_15_7) AppleWebKit/537.36 (KHTML, like Gecko) Chrome/92.0.4515.107 Safari/537.36",Macintosh,Chrome,92.0.4515.107,"OS X",10_15_7,5f461dd6c139dd6b46c7596cbd57cd79
190,1,"""","""","""","""","""",sampler,19,171937,0.0-6.0-13.0,"""","""","""","""","""","""","""","""","""","""","""","""","2021-08-09 16:18:49",71.230.126.129,"Mozilla/5.0 (Macintosh; Intel Mac OS X 10_15_7) AppleWebKit/537.36 (KHTML, like Gecko) Chrome/92.0.4515.107 Safari/537.36",Macintosh,Chrome,92.0.4515.107,"OS X",10_15_7,5f461dd6c139dd6b46c7596cbd57cd79
190,1,"""","""","""","""","""",sampler,20,171937,0.0-6.0-14.0,"""","""","""","""","""","""","""","""","""","""","""","""","2021-08-09 16:18:49",71.230.126.129,"Mozilla/5.0 (Macintosh; Intel Mac OS X 10_15_7) AppleWebKit/537.36 (KHTML, like Gecko) Chrome/92.0.4515.107 Safari/537.36",Macintosh,Chrome,92.0.4515.107,"OS X",10_15_7,5f461dd6c139dd6b46c7596cbd57cd79
190,1,"""","""","""","""","""",sampler,21,171937,0.0-6.0-15.0,"""","""","""","""","""","""","""","""","""","""","""","""","2021-08-09 16:18:49",71.230.126.129,"Mozilla/5.0 (Macintosh; Intel Mac OS X 10_15_7) AppleWebKit/537.36 (KHTML, like Gecko) Chrome/92.0.4515.107 Safari/537.36",Macintosh,Chrome,92.0.4515.107,"OS X",10_15_7,5f461dd6c139dd6b46c7596cbd57cd79
190,1,"""","""","""","""","""",sampler,22,171937,0.0-6.0-16.0,"""","""","""","""","""","""","""","""","""","""","""","""","2021-08-09 16:18:49",71.230.126.129,"Mozilla/5.0 (Macintosh; Intel Mac OS X 10_15_7) AppleWebKit/537.36 (KHTML, like Gecko) Chrome/92.0.4515.107 Safari/537.36",Macintosh,Chrome,92.0.4515.107,"OS X",10_15_7,5f461dd6c139dd6b46c7596cbd57cd79
190,1,"""","""","""","""","""",sampler,23,171937,0.0-6.0-17.0,"""","""","""","""","""","""","""","""","""","""","""","""","2021-08-09 16:18:49",71.230.126.129,"Mozilla/5.0 (Macintosh; Intel Mac OS X 10_15_7) AppleWebKit/537.36 (KHTML, like Gecko) Chrome/92.0.4515.107 Safari/537.36",Macintosh,Chrome,92.0.4515.107,"OS X",10_15_7,5f461dd6c139dd6b46c7596cbd57cd79
190,1,"""","""","""","""","""",sampler,24,171937,0.0-6.0-18.0,"""","""","""","""","""","""","""","""","""","""","""","""","2021-08-09 16:18:49",71.230.126.129,"Mozilla/5.0 (Macintosh; Intel Mac OS X 10_15_7) AppleWebKit/537.36 (KHTML, like Gecko) Chrome/92.0.4515.107 Safari/537.36",Macintosh,Chrome,92.0.4515.107,"OS X",10_15_7,5f461dd6c139dd6b46c7596cbd57cd79
190,1,"""","""","""","""","""",sampler,25,171937,0.0-6.0-19.0,"""","""","""","""","""","""","""","""","""","""","""","""","2021-08-09 16:18:49",71.230.126.129,"Mozilla/5.0 (Macintosh; Intel Mac OS X 10_15_7) AppleWebKit/537.36 (KHTML, like Gecko) Chrome/92.0.4515.107 Safari/537.36",Macintosh,Chrome,92.0.4515.107,"OS X",10_15_7,5f461dd6c139dd6b46c7596cbd57cd79
190,1,"""","""","""","""","""",sampler,26,171937,0.0-6.0-20.0,"""","""","""","""","""","""","""","""","""","""","""","""","2021-08-09 16:18:49",71.230.126.129,"Mozilla/5.0 (Macintosh; Intel Mac OS X 10_15_7) AppleWebKit/537.36 (KHTML, like Gecko) Chrome/92.0.4515.107 Safari/537.36",Macintosh,Chrome,92.0.4515.107,"OS X",10_15_7,5f461dd6c139dd6b46c7596cbd57cd79
190,1,"""","""","""","""","""",sampler,27,171938,0.0-6.0-21.0,"""","""","""","""","""","""","""","""","""","""","""","""","2021-08-09 16:18:49",71.230.126.129,"Mozilla/5.0 (Macintosh; Intel Mac OS X 10_15_7) AppleWebKit/537.36 (KHTML, like Gecko) Chrome/92.0.4515.107 Safari/537.36",Macintosh,Chrome,92.0.4515.107,"OS X",10_15_7,5f461dd6c139dd6b46c7596cbd57cd79
190,1,"""","""","""","""","""",sampler,28,171938,0.0-6.0-22.0,"""","""","""","""","""","""","""","""","""","""","""","""","2021-08-09 16:18:49",71.230.126.129,"Mozilla/5.0 (Macintosh; Intel Mac OS X 10_15_7) AppleWebKit/537.36 (KHTML, like Gecko) Chrome/92.0.4515.107 Safari/537.36",Macintosh,Chrome,92.0.4515.107,"OS X",10_15_7,5f461dd6c139dd6b46c7596cbd57cd79
190,1,"""","""","""","""","""",sampler,29,171938,0.0-6.0-23.0,"""","""","""","""","""","""","""","""","""","""","""","""","2021-08-09 16:18:49",71.230.126.129,"Mozilla/5.0 (Macintosh; Intel Mac OS X 10_15_7) AppleWebKit/537.36 (KHTML, like Gecko) Chrome/92.0.4515.107 Safari/537.36",Macintosh,Chrome,92.0.4515.107,"OS X",10_15_7,5f461dd6c139dd6b46c7596cbd57cd79
190,1,"""","""","""","""","""",sampler,30,171938,0.0-6.0-24.0,"""","""","""","""","""","""","""","""","""","""","""","""","2021-08-09 16:18:49",71.230.126.129,"Mozilla/5.0 (Macintosh; Intel Mac OS X 10_15_7) AppleWebKit/537.36 (KHTML, like Gecko) Chrome/92.0.4515.107 Safari/537.36",Macintosh,Chrome,92.0.4515.107,"OS X",10_15_7,5f461dd6c139dd6b46c7596cbd57cd79
190,1,"""","""","""","""","""",sampler,31,171938,0.0-6.0-25.0,"""","""","""","""","""","""","""","""","""","""","""","""","2021-08-09 16:18:49",71.230.126.129,"Mozilla/5.0 (Macintosh; Intel Mac OS X 10_15_7) AppleWebKit/537.36 (KHTML, like Gecko) Chrome/92.0.4515.107 Safari/537.36",Macintosh,Chrome,92.0.4515.107,"OS X",10_15_7,5f461dd6c139dd6b46c7596cbd57cd79
190,1,"""","""","""","""","""",sampler,32,171938,0.0-6.0-26.0,"""","""","""","""","""","""","""","""","""","""","""","""","2021-08-09 16:18:49",71.230.126.129,"Mozilla/5.0 (Macintosh; Intel Mac OS X 10_15_7) AppleWebKit/537.36 (KHTML, like Gecko) Chrome/92.0.4515.107 Safari/537.36",Macintosh,Chrome,92.0.4515.107,"OS X",10_15_7,5f461dd6c139dd6b46c7596cbd57cd79
190,1,"""","""","""","""","""",sampler,33,171938,0.0-6.0-27.0,"""","""","""","""","""","""","""","""","""","""","""","""","2021-08-09 16:18:49",71.230.126.129,"Mozilla/5.0 (Macintosh; Intel Mac OS X 10_15_7) AppleWebKit/537.36 (KHTML, like Gecko) Chrome/92.0.4515.107 Safari/537.36",Macintosh,Chrome,92.0.4515.107,"OS X",10_15_7,5f461dd6c139dd6b46c7596cbd57cd79
190,1,"""","""","""","""","""",sampler,34,171938,0.0-6.0-28.0,"""","""","""","""","""","""","""","""","""","""","""","""","2021-08-09 16:18:49",71.230.126.129,"Mozilla/5.0 (Macintosh; Intel Mac OS X 10_15_7) AppleWebKit/537.36 (KHTML, like Gecko) Chrome/92.0.4515.107 Safari/537.36",Macintosh,Chrome,92.0.4515.107,"OS X",10_15_7,5f461dd6c139dd6b46c7596cbd57cd79
190,1,"""","""","""","""","""",sampler,35,171938,0.0-6.0-29.0,"""","""","""","""","""","""","""","""","""","""","""","""","2021-08-09 16:18:49",71.230.126.129,"Mozilla/5.0 (Macintosh; Intel Mac OS X 10_15_7) AppleWebKit/537.36 (KHTML, like Gecko) Chrome/92.0.4515.107 Safari/537.36",Macintosh,Chrome,92.0.4515.107,"OS X",10_15_7,5f461dd6c139dd6b46c7596cbd57cd79
190,1,"""","""","""","""","""",sampler,36,171939,0.0-6.0-30.0,"""","""","""","""","""","""","""","""","""","""","""","""","2021-08-09 16:18:49",71.230.126.129,"Mozilla/5.0 (Macintosh; Intel Mac OS X 10_15_7) AppleWebKit/537.36 (KHTML, like Gecko) Chrome/92.0.4515.107 Safari/537.36",Macintosh,Chrome,92.0.4515.107,"OS X",10_15_7,5f461dd6c139dd6b46c7596cbd57cd79
190,1,"""","""","""","""","""",sampler,37,171939,0.0-6.0-31.0,"""","""","""","""","""","""","""","""","""","""","""","""","2021-08-09 16:18:49",71.230.126.129,"Mozilla/5.0 (Macintosh; Intel Mac OS X 10_15_7) AppleWebKit/537.36 (KHTML, like Gecko) Chrome/92.0.4515.107 Safari/537.36",Macintosh,Chrome,92.0.4515.107,"OS X",10_15_7,5f461dd6c139dd6b46c7596cbd57cd79
190,1,"""","""","""","""","""",sampler,38,171939,0.0-6.0-32.0,"""","""","""","""","""","""","""","""","""","""","""","""","2021-08-09 16:18:49",71.230.126.129,"Mozilla/5.0 (Macintosh; Intel Mac OS X 10_15_7) AppleWebKit/537.36 (KHTML, like Gecko) Chrome/92.0.4515.107 Safari/537.36",Macintosh,Chrome,92.0.4515.107,"OS X",10_15_7,5f461dd6c139dd6b46c7596cbd57cd79
190,1,"""","""","""","""","""",sampler,39,171939,0.0-6.0-33.0,"""","""","""","""","""","""","""","""","""","""","""","""","2021-08-09 16:18:49",71.230.126.129,"Mozilla/5.0 (Macintosh; Intel Mac OS X 10_15_7) AppleWebKit/537.36 (KHTML, like Gecko) Chrome/92.0.4515.107 Safari/537.36",Macintosh,Chrome,92.0.4515.107,"OS X",10_15_7,5f461dd6c139dd6b46c7596cbd57cd79
190,1,"""","""","""","""","""",sampler,40,171939,0.0-6.0-34.0,"""","""","""","""","""","""","""","""","""","""","""","""","2021-08-09 16:18:49",71.230.126.129,"Mozilla/5.0 (Macintosh; Intel Mac OS X 10_15_7) AppleWebKit/537.36 (KHTML, like Gecko) Chrome/92.0.4515.107 Safari/537.36",Macintosh,Chrome,92.0.4515.107,"OS X",10_15_7,5f461dd6c139dd6b46c7596cbd57cd79
190,1,"""","""","""","""","""",sampler,41,171940,0.0-6.0-35.0,"""","""","""","""","""","""","""","""","""","""","""","""","2021-08-09 16:18:49",71.230.126.129,"Mozilla/5.0 (Macintosh; Intel Mac OS X 10_15_7) AppleWebKit/537.36 (KHTML, like Gecko) Chrome/92.0.4515.107 Safari/537.36",Macintosh,Chrome,92.0.4515.107,"OS X",10_15_7,5f461dd6c139dd6b46c7596cbd57cd79
190,1,"""","""","""","""","""",sampler,42,171940,0.0-6.0-36.0,"""","""","""","""","""","""","""","""","""","""","""","""","2021-08-09 16:18:49",71.230.126.129,"Mozilla/5.0 (Macintosh; Intel Mac OS X 10_15_7) AppleWebKit/537.36 (KHTML, like Gecko) Chrome/92.0.4515.107 Safari/537.36",Macintosh,Chrome,92.0.4515.107,"OS X",10_15_7,5f461dd6c139dd6b46c7596cbd57cd79
190,1,"""","""","""","""","""",sampler,43,171940,0.0-6.0-37.0,"""","""","""","""","""","""","""","""","""","""","""","""","2021-08-09 16:18:49",71.230.126.129,"Mozilla/5.0 (Macintosh; Intel Mac OS X 10_15_7) AppleWebKit/537.36 (KHTML, like Gecko) Chrome/92.0.4515.107 Safari/537.36",Macintosh,Chrome,92.0.4515.107,"OS X",10_15_7,5f461dd6c139dd6b46c7596cbd57cd79
190,1,"""","""","""","""","""",sampler,44,171940,0.0-6.0-38.0,"""","""","""","""","""","""","""","""","""","""","""","""","2021-08-09 16:18:49",71.230.126.129,"Mozilla/5.0 (Macintosh; Intel Mac OS X 10_15_7) AppleWebKit/537.36 (KHTML, like Gecko) Chrome/92.0.4515.107 Safari/537.36",Macintosh,Chrome,92.0.4515.107,"OS X",10_15_7,5f461dd6c139dd6b46c7596cbd57cd79
190,1,"""","""","""","""","""",sampler,45,171940,0.0-6.0-39.0,"""","""","""","""","""","""","""","""","""","""","""","""","2021-08-09 16:18:49",71.230.126.129,"Mozilla/5.0 (Macintosh; Intel Mac OS X 10_15_7) AppleWebKit/537.36 (KHTML, like Gecko) Chrome/92.0.4515.107 Safari/537.36",Macintosh,Chrome,92.0.4515.107,"OS X",10_15_7,5f461dd6c139dd6b46c7596cbd57cd79
190,1,"""","""","""","""","""",sampler,46,171940,0.0-6.0-40.0,"""","""","""","""","""","""","""","""","""","""","""","""","2021-08-09 16:18:49",71.230.126.129,"Mozilla/5.0 (Macintosh; Intel Mac OS X 10_15_7) AppleWebKit/537.36 (KHTML, like Gecko) Chrome/92.0.4515.107 Safari/537.36",Macintosh,Chrome,92.0.4515.107,"OS X",10_15_7,5f461dd6c139dd6b46c7596cbd57cd79
190,1,"""","""","""","""","""",sampler,47,171940,0.0-6.0-41.0,"""","""","""","""","""","""","""","""","""","""","""","""","2021-08-09 16:18:49",71.230.126.129,"Mozilla/5.0 (Macintosh; Intel Mac OS X 10_15_7) AppleWebKit/537.36 (KHTML, like Gecko) Chrome/92.0.4515.107 Safari/537.36",Macintosh,Chrome,92.0.4515.107,"OS X",10_15_7,5f461dd6c139dd6b46c7596cbd57cd79
190,1,"""","""","""","""","""",sampler,48,171940,0.0-6.0-42.0,"""","""","""","""","""","""","""","""","""","""","""","""","2021-08-09 16:18:49",71.230.126.129,"Mozilla/5.0 (Macintosh; Intel Mac OS X 10_15_7) AppleWebKit/537.36 (KHTML, like Gecko) Chrome/92.0.4515.107 Safari/537.36",Macintosh,Chrome,92.0.4515.107,"OS X",10_15_7,5f461dd6c139dd6b46c7596cbd57cd79
190,1,"""","""","""","""","""",sampler,49,171941,0.0-6.0-43.0,"""","""","""","""","""","""","""","""","""","""","""","""","2021-08-09 16:18:49",71.230.126.129,"Mozilla/5.0 (Macintosh; Intel Mac OS X 10_15_7) AppleWebKit/537.36 (KHTML, like Gecko) Chrome/92.0.4515.107 Safari/537.36",Macintosh,Chrome,92.0.4515.107,"OS X",10_15_7,5f461dd6c139dd6b46c7596cbd57cd79
190,1,"""","""","""","""","""",sampler,50,171941,0.0-6.0-44.0,"""","""","""","""","""","""","""","""","""","""","""","""","2021-08-09 16:18:49",71.230.126.129,"Mozilla/5.0 (Macintosh; Intel Mac OS X 10_15_7) AppleWebKit/537.36 (KHTML, like Gecko) Chrome/92.0.4515.107 Safari/537.36",Macintosh,Chrome,92.0.4515.107,"OS X",10_15_7,5f461dd6c139dd6b46c7596cbd57cd79
190,1,"""","""","""","""","""",sampler,51,171941,0.0-6.0-45.0,"""","""","""","""","""","""","""","""","""","""","""","""","2021-08-09 16:18:49",71.230.126.129,"Mozilla/5.0 (Macintosh; Intel Mac OS X 10_15_7) AppleWebKit/537.36 (KHTML, like Gecko) Chrome/92.0.4515.107 Safari/537.36",Macintosh,Chrome,92.0.4515.107,"OS X",10_15_7,5f461dd6c139dd6b46c7596cbd57cd79
190,1,"""","""","""","""","""",sampler,52,171941,0.0-6.0-46.0,"""","""","""","""","""","""","""","""","""","""","""","""","2021-08-09 16:18:49",71.230.126.129,"Mozilla/5.0 (Macintosh; Intel Mac OS X 10_15_7) AppleWebKit/537.36 (KHTML, like Gecko) Chrome/92.0.4515.107 Safari/537.36",Macintosh,Chrome,92.0.4515.107,"OS X",10_15_7,5f461dd6c139dd6b46c7596cbd57cd79
190,1,"""","""","""","""","""",sampler,53,171941,0.0-6.0-47.0,"""","""","""","""","""","""","""","""","""","""","""","""","2021-08-09 16:18:49",71.230.126.129,"Mozilla/5.0 (Macintosh; Intel Mac OS X 10_15_7) AppleWebKit/537.36 (KHTML, like Gecko) Chrome/92.0.4515.107 Safari/537.36",Macintosh,Chrome,92.0.4515.107,"OS X",10_15_7,5f461dd6c139dd6b46c7596cbd57cd79
190,1,"""","""","""","""","""",sampler,54,171941,0.0-6.0-48.0,"""","""","""","""","""","""","""","""","""","""","""","""","2021-08-09 16:18:49",71.230.126.129,"Mozilla/5.0 (Macintosh; Intel Mac OS X 10_15_7) AppleWebKit/537.36 (KHTML, like Gecko) Chrome/92.0.4515.107 Safari/537.36",Macintosh,Chrome,92.0.4515.107,"OS X",10_15_7,5f461dd6c139dd6b46c7596cbd57cd79
190,1,"""","""","""","""","""",sampler,55,171941,0.0-6.0-49.0,"""","""","""","""","""","""","""","""","""","""","""","""","2021-08-09 16:18:49",71.230.126.129,"Mozilla/5.0 (Macintosh; Intel Mac OS X 10_15_7) AppleWebKit/537.36 (KHTML, like Gecko) Chrome/92.0.4515.107 Safari/537.36",Macintosh,Chrome,92.0.4515.107,"OS X",10_15_7,5f461dd6c139dd6b46c7596cbd57cd79
190,1,"""","""","""","""","""",sampler,56,171941,0.0-6.0-50.0,"""","""","""","""","""","""","""","""","""","""","""","""","2021-08-09 16:18:49",71.230.126.129,"Mozilla/5.0 (Macintosh; Intel Mac OS X 10_15_7) AppleWebKit/537.36 (KHTML, like Gecko) Chrome/92.0.4515.107 Safari/537.36",Macintosh,Chrome,92.0.4515.107,"OS X",10_15_7,5f461dd6c139dd6b46c7596cbd57cd79
190,1,"""","""","""","""","""",sampler,57,171942,0.0-6.0-51.0,"""","""","""","""","""","""","""","""","""","""","""","""","2021-08-09 16:18:49",71.230.126.129,"Mozilla/5.0 (Macintosh; Intel Mac OS X 10_15_7) AppleWebKit/537.36 (KHTML, like Gecko) Chrome/92.0.4515.107 Safari/537.36",Macintosh,Chrome,92.0.4515.107,"OS X",10_15_7,5f461dd6c139dd6b46c7596cbd57cd79
190,1,"""","""","""","""","""",sampler,58,171942,0.0-6.0-52.0,"""","""","""","""","""","""","""","""","""","""","""","""","2021-08-09 16:18:49",71.230.126.129,"Mozilla/5.0 (Macintosh; Intel Mac OS X 10_15_7) AppleWebKit/537.36 (KHTML, like Gecko) Chrome/92.0.4515.107 Safari/537.36",Macintosh,Chrome,92.0.4515.107,"OS X",10_15_7,5f461dd6c139dd6b46c7596cbd57cd79
190,1,"""","""","""","""","""",sampler,59,171942,0.0-6.0-53.0,"""","""","""","""","""","""","""","""","""","""","""","""","2021-08-09 16:18:49",71.230.126.129,"Mozilla/5.0 (Macintosh; Intel Mac OS X 10_15_7) AppleWebKit/537.36 (KHTML, like Gecko) Chrome/92.0.4515.107 Safari/537.36",Macintosh,Chrome,92.0.4515.107,"OS X",10_15_7,5f461dd6c139dd6b46c7596cbd57cd79
190,1,"""","""","""","""","""",sampler,60,171942,0.0-6.0-54.0,"""","""","""","""","""","""","""","""","""","""","""","""","2021-08-09 16:18:49",71.230.126.129,"Mozilla/5.0 (Macintosh; Intel Mac OS X 10_15_7) AppleWebKit/537.36 (KHTML, like Gecko) Chrome/92.0.4515.107 Safari/537.36",Macintosh,Chrome,92.0.4515.107,"OS X",10_15_7,5f461dd6c139dd6b46c7596cbd57cd79
190,1,"""","""","""","""","""",sampler,61,171942,0.0-6.0-55.0,"""","""","""","""","""","""","""","""","""","""","""","""","2021-08-09 16:18:49",71.230.126.129,"Mozilla/5.0 (Macintosh; Intel Mac OS X 10_15_7) AppleWebKit/537.36 (KHTML, like Gecko) Chrome/92.0.4515.107 Safari/537.36",Macintosh,Chrome,92.0.4515.107,"OS X",10_15_7,5f461dd6c139dd6b46c7596cbd57cd79
190,1,"""","""","""","""","""",sampler,62,171942,0.0-6.0-56.0,"""","""","""","""","""","""","""","""","""","""","""","""","2021-08-09 16:18:49",71.230.126.129,"Mozilla/5.0 (Macintosh; Intel Mac OS X 10_15_7) AppleWebKit/537.36 (KHTML, like Gecko) Chrome/92.0.4515.107 Safari/537.36",Macintosh,Chrome,92.0.4515.107,"OS X",10_15_7,5f461dd6c139dd6b46c7596cbd57cd79
190,1,"""","""","""","""","""",sampler,63,171942,0.0-6.0-57.0,"""","""","""","""","""","""","""","""","""","""","""","""","2021-08-09 16:18:49",71.230.126.129,"Mozilla/5.0 (Macintosh; Intel Mac OS X 10_15_7) AppleWebKit/537.36 (KHTML, like Gecko) Chrome/92.0.4515.107 Safari/537.36",Macintosh,Chrome,92.0.4515.107,"OS X",10_15_7,5f461dd6c139dd6b46c7596cbd57cd79
190,1,"""","""","""","""","""",sampler,64,171942,0.0-6.0-58.0,"""","""","""","""","""","""","""","""","""","""","""","""","2021-08-09 16:18:49",71.230.126.129,"Mozilla/5.0 (Macintosh; Intel Mac OS X 10_15_7) AppleWebKit/537.36 (KHTML, like Gecko) Chrome/92.0.4515.107 Safari/537.36",Macintosh,Chrome,92.0.4515.107,"OS X",10_15_7,5f461dd6c139dd6b46c7596cbd57cd79
190,1,"""","""","""","""","""",sampler,65,171943,0.0-6.0-59.0,"""","""","""","""","""","""","""","""","""","""","""","""","2021-08-09 16:18:49",71.230.126.129,"Mozilla/5.0 (Macintosh; Intel Mac OS X 10_15_7) AppleWebKit/537.36 (KHTML, like Gecko) Chrome/92.0.4515.107 Safari/537.36",Macintosh,Chrome,92.0.4515.107,"OS X",10_15_7,5f461dd6c139dd6b46c7596cbd57cd79
190,1,"""","""","""","""","""",sampler,66,171943,0.0-6.0-60.0,"""","""","""","""","""","""","""","""","""","""","""","""","2021-08-09 16:18:49",71.230.126.129,"Mozilla/5.0 (Macintosh; Intel Mac OS X 10_15_7) AppleWebKit/537.36 (KHTML, like Gecko) Chrome/92.0.4515.107 Safari/537.36",Macintosh,Chrome,92.0.4515.107,"OS X",10_15_7,5f461dd6c139dd6b46c7596cbd57cd79
190,1,"""","""","""","""","""",sampler,67,171943,0.0-6.0-61.0,"""","""","""","""","""","""","""","""","""","""","""","""","2021-08-09 16:18:49",71.230.126.129,"Mozilla/5.0 (Macintosh; Intel Mac OS X 10_15_7) AppleWebKit/537.36 (KHTML, like Gecko) Chrome/92.0.4515.107 Safari/537.36",Macintosh,Chrome,92.0.4515.107,"OS X",10_15_7,5f461dd6c139dd6b46c7596cbd57cd79
190,1,"""","""","""","""","""",sampler,68,171943,0.0-6.0-62.0,"""","""","""","""","""","""","""","""","""","""","""","""","2021-08-09 16:18:49",71.230.126.129,"Mozilla/5.0 (Macintosh; Intel Mac OS X 10_15_7) AppleWebKit/537.36 (KHTML, like Gecko) Chrome/92.0.4515.107 Safari/537.36",Macintosh,Chrome,92.0.4515.107,"OS X",10_15_7,5f461dd6c139dd6b46c7596cbd57cd79
190,1,"""","""","""","""","""",sampler,69,171943,0.0-6.0-63.0,"""","""","""","""","""","""","""","""","""","""","""","""","2021-08-09 16:18:49",71.230.126.129,"Mozilla/5.0 (Macintosh; Intel Mac OS X 10_15_7) AppleWebKit/537.36 (KHTML, like Gecko) Chrome/92.0.4515.107 Safari/537.36",Macintosh,Chrome,92.0.4515.107,"OS X",10_15_7,5f461dd6c139dd6b46c7596cbd57cd79
190,1,"""","""","""","""","""",sampler,70,171945,0.0-6.0-64.0,"""","""","""","""","""","""","""","""","""","""","""","""","2021-08-09 16:18:49",71.230.126.129,"Mozilla/5.0 (Macintosh; Intel Mac OS X 10_15_7) AppleWebKit/537.36 (KHTML, like Gecko) Chrome/92.0.4515.107 Safari/537.36",Macintosh,Chrome,92.0.4515.107,"OS X",10_15_7,5f461dd6c139dd6b46c7596cbd57cd79
190,1,"""","""","""","""","""",sampler,71,171945,0.0-6.0-65.0,"""","""","""","""","""","""","""","""","""","""","""","""","2021-08-09 16:18:49",71.230.126.129,"Mozilla/5.0 (Macintosh; Intel Mac OS X 10_15_7) AppleWebKit/537.36 (KHTML, like Gecko) Chrome/92.0.4515.107 Safari/537.36",Macintosh,Chrome,92.0.4515.107,"OS X",10_15_7,5f461dd6c139dd6b46c7596cbd57cd79
190,1,"""","""","""","""","""",sampler,72,171945,0.0-6.0-66.0,"""","""","""","""","""","""","""","""","""","""","""","""","2021-08-09 16:18:49",71.230.126.129,"Mozilla/5.0 (Macintosh; Intel Mac OS X 10_15_7) AppleWebKit/537.36 (KHTML, like Gecko) Chrome/92.0.4515.107 Safari/537.36",Macintosh,Chrome,92.0.4515.107,"OS X",10_15_7,5f461dd6c139dd6b46c7596cbd57cd79
190,1,"""","""","""","""","""",sampler,73,171946,0.0-6.0-67.0,"""","""","""","""","""","""","""","""","""","""","""","""","2021-08-09 16:18:49",71.230.126.129,"Mozilla/5.0 (Macintosh; Intel Mac OS X 10_15_7) AppleWebKit/537.36 (KHTML, like Gecko) Chrome/92.0.4515.107 Safari/537.36",Macintosh,Chrome,92.0.4515.107,"OS X",10_15_7,5f461dd6c139dd6b46c7596cbd57cd79
190,1,"""","""","""","""","""",sampler,74,171946,0.0-6.0-68.0,"""","""","""","""","""","""","""","""","""","""","""","""","2021-08-09 16:18:49",71.230.126.129,"Mozilla/5.0 (Macintosh; Intel Mac OS X 10_15_7) AppleWebKit/537.36 (KHTML, like Gecko) Chrome/92.0.4515.107 Safari/537.36",Macintosh,Chrome,92.0.4515.107,"OS X",10_15_7,5f461dd6c139dd6b46c7596cbd57cd79
190,1,"""","""","""","""","""",sampler,75,171946,0.0-6.0-69.0,"""","""","""","""","""","""","""","""","""","""","""","""","2021-08-09 16:18:49",71.230.126.129,"Mozilla/5.0 (Macintosh; Intel Mac OS X 10_15_7) AppleWebKit/537.36 (KHTML, like Gecko) Chrome/92.0.4515.107 Safari/537.36",Macintosh,Chrome,92.0.4515.107,"OS X",10_15_7,5f461dd6c139dd6b46c7596cbd57cd79
190,1,"""","""","""","""","""",sampler,76,171946,0.0-6.0-70.0,"""","""","""","""","""","""","""","""","""","""","""","""","2021-08-09 16:18:49",71.230.126.129,"Mozilla/5.0 (Macintosh; Intel Mac OS X 10_15_7) AppleWebKit/537.36 (KHTML, like Gecko) Chrome/92.0.4515.107 Safari/537.36",Macintosh,Chrome,92.0.4515.107,"OS X",10_15_7,5f461dd6c139dd6b46c7596cbd57cd79
190,1,"""","""","""","""","""",sampler,77,171946,0.0-6.0-71.0,"""","""","""","""","""","""","""","""","""","""","""","""","2021-08-09 16:18:49",71.230.126.129,"Mozilla/5.0 (Macintosh; Intel Mac OS X 10_15_7) AppleWebKit/537.36 (KHTML, like Gecko) Chrome/92.0.4515.107 Safari/537.36",Macintosh,Chrome,92.0.4515.107,"OS X",10_15_7,5f461dd6c139dd6b46c7596cbd57cd79
190,1,"""","""","""","""","""",sampler,78,171946,0.0-6.0-72.0,"""","""","""","""","""","""","""","""","""","""","""","""","2021-08-09 16:18:49",71.230.126.129,"Mozilla/5.0 (Macintosh; Intel Mac OS X 10_15_7) AppleWebKit/537.36 (KHTML, like Gecko) Chrome/92.0.4515.107 Safari/537.36",Macintosh,Chrome,92.0.4515.107,"OS X",10_15_7,5f461dd6c139dd6b46c7596cbd57cd79
190,1,"""","""","""","""","""",sampler,79,171946,0.0-6.0-73.0,"""","""","""","""","""","""","""","""","""","""","""","""","2021-08-09 16:18:49",71.230.126.129,"Mozilla/5.0 (Macintosh; Intel Mac OS X 10_15_7) AppleWebKit/537.36 (KHTML, like Gecko) Chrome/92.0.4515.107 Safari/537.36",Macintosh,Chrome,92.0.4515.107,"OS X",10_15_7,5f461dd6c139dd6b46c7596cbd57cd79
190,1,"""","""","""","""","""",sampler,80,171947,0.0-6.0-74.0,"""","""","""","""","""","""","""","""","""","""","""","""","2021-08-09 16:18:49",71.230.126.129,"Mozilla/5.0 (Macintosh; Intel Mac OS X 10_15_7) AppleWebKit/537.36 (KHTML, like Gecko) Chrome/92.0.4515.107 Safari/537.36",Macintosh,Chrome,92.0.4515.107,"OS X",10_15_7,5f461dd6c139dd6b46c7596cbd57cd79
190,1,"""","""","""","""","""",sampler,81,171947,0.0-6.0-75.0,"""","""","""","""","""","""","""","""","""","""","""","""","2021-08-09 16:18:49",71.230.126.129,"Mozilla/5.0 (Macintosh; Intel Mac OS X 10_15_7) AppleWebKit/537.36 (KHTML, like Gecko) Chrome/92.0.4515.107 Safari/537.36",Macintosh,Chrome,92.0.4515.107,"OS X",10_15_7,5f461dd6c139dd6b46c7596cbd57cd79
190,1,"""","""","""","""","""",sampler,82,171948,0.0-6.0-76.0,"""","""","""","""","""","""","""","""","""","""","""","""","2021-08-09 16:18:49",71.230.126.129,"Mozilla/5.0 (Macintosh; Intel Mac OS X 10_15_7) AppleWebKit/537.36 (KHTML, like Gecko) Chrome/92.0.4515.107 Safari/537.36",Macintosh,Chrome,92.0.4515.107,"OS X",10_15_7,5f461dd6c139dd6b46c7596cbd57cd79
190,1,"""","""","""","""","""",sampler,83,171949,0.0-6.0-77.0,"""","""","""","""","""","""","""","""","""","""","""","""","2021-08-09 16:18:49",71.230.126.129,"Mozilla/5.0 (Macintosh; Intel Mac OS X 10_15_7) AppleWebKit/537.36 (KHTML, like Gecko) Chrome/92.0.4515.107 Safari/537.36",Macintosh,Chrome,92.0.4515.107,"OS X",10_15_7,5f461dd6c139dd6b46c7596cbd57cd79
190,1,"""","""","""","""","""",sampler,84,171949,0.0-6.0-78.0,"""","""","""","""","""","""","""","""","""","""","""","""","2021-08-09 16:18:49",71.230.126.129,"Mozilla/5.0 (Macintosh; Intel Mac OS X 10_15_7) AppleWebKit/537.36 (KHTML, like Gecko) Chrome/92.0.4515.107 Safari/537.36",Macintosh,Chrome,92.0.4515.107,"OS X",10_15_7,5f461dd6c139dd6b46c7596cbd57cd79
190,1,"""","""","""","""","""",sampler,85,171949,0.0-6.0-79.0,"""","""","""","""","""","""","""","""","""","""","""","""","2021-08-09 16:18:49",71.230.126.129,"Mozilla/5.0 (Macintosh; Intel Mac OS X 10_15_7) AppleWebKit/537.36 (KHTML, like Gecko) Chrome/92.0.4515.107 Safari/537.36",Macintosh,Chrome,92.0.4515.107,"OS X",10_15_7,5f461dd6c139dd6b46c7596cbd57cd79
190,1,"""","""","""","""","""",sampler,86,171949,0.0-6.0-80.0,"""","""","""","""","""","""","""","""","""","""","""","""","2021-08-09 16:18:49",71.230.126.129,"Mozilla/5.0 (Macintosh; Intel Mac OS X 10_15_7) AppleWebKit/537.36 (KHTML, like Gecko) Chrome/92.0.4515.107 Safari/537.36",Macintosh,Chrome,92.0.4515.107,"OS X",10_15_7,5f461dd6c139dd6b46c7596cbd57cd79
190,1,"""","""","""","""","""",sampler,87,171950,0.0-6.0-81.0,"""","""","""","""","""","""","""","""","""","""","""","""","2021-08-09 16:18:49",71.230.126.129,"Mozilla/5.0 (Macintosh; Intel Mac OS X 10_15_7) AppleWebKit/537.36 (KHTML, like Gecko) Chrome/92.0.4515.107 Safari/537.36",Macintosh,Chrome,92.0.4515.107,"OS X",10_15_7,5f461dd6c139dd6b46c7596cbd57cd79
190,1,"""","""","""","""","""",sampler,88,171950,0.0-6.0-82.0,"""","""","""","""","""","""","""","""","""","""","""","""","2021-08-09 16:18:49",71.230.126.129,"Mozilla/5.0 (Macintosh; Intel Mac OS X 10_15_7) AppleWebKit/537.36 (KHTML, like Gecko) Chrome/92.0.4515.107 Safari/537.36",Macintosh,Chrome,92.0.4515.107,"OS X",10_15_7,5f461dd6c139dd6b46c7596cbd57cd79
190,1,"""","""","""","""","""",sampler,89,171950,0.0-6.0-83.0,"""","""","""","""","""","""","""","""","""","""","""","""","2021-08-09 16:18:49",71.230.126.129,"Mozilla/5.0 (Macintosh; Intel Mac OS X 10_15_7) AppleWebKit/537.36 (KHTML, like Gecko) Chrome/92.0.4515.107 Safari/537.36",Macintosh,Chrome,92.0.4515.107,"OS X",10_15_7,5f461dd6c139dd6b46c7596cbd57cd79
190,1,"""","""","""","""","""",sampler,90,171950,0.0-6.0-84.0,"""","""","""","""","""","""","""","""","""","""","""","""","2021-08-09 16:18:49",71.230.126.129,"Mozilla/5.0 (Macintosh; Intel Mac OS X 10_15_7) AppleWebKit/537.36 (KHTML, like Gecko) Chrome/92.0.4515.107 Safari/537.36",Macintosh,Chrome,92.0.4515.107,"OS X",10_15_7,5f461dd6c139dd6b46c7596cbd57cd79
190,1,"""","""","""","""","""",sampler,91,171950,0.0-6.0-85.0,"""","""","""","""","""","""","""","""","""","""","""","""","2021-08-09 16:18:49",71.230.126.129,"Mozilla/5.0 (Macintosh; Intel Mac OS X 10_15_7) AppleWebKit/537.36 (KHTML, like Gecko) Chrome/92.0.4515.107 Safari/537.36",Macintosh,Chrome,92.0.4515.107,"OS X",10_15_7,5f461dd6c139dd6b46c7596cbd57cd79
190,1,"""","""","""","""","""",sampler,92,171951,0.0-6.0-86.0,"""","""","""","""","""","""","""","""","""","""","""","""","2021-08-09 16:18:49",71.230.126.129,"Mozilla/5.0 (Macintosh; Intel Mac OS X 10_15_7) AppleWebKit/537.36 (KHTML, like Gecko) Chrome/92.0.4515.107 Safari/537.36",Macintosh,Chrome,92.0.4515.107,"OS X",10_15_7,5f461dd6c139dd6b46c7596cbd57cd79
190,1,"""","""","""","""","""",sampler,93,171951,0.0-6.0-87.0,"""","""","""","""","""","""","""","""","""","""","""","""","2021-08-09 16:18:49",71.230.126.129,"Mozilla/5.0 (Macintosh; Intel Mac OS X 10_15_7) AppleWebKit/537.36 (KHTML, like Gecko) Chrome/92.0.4515.107 Safari/537.36",Macintosh,Chrome,92.0.4515.107,"OS X",10_15_7,5f461dd6c139dd6b46c7596cbd57cd79
190,1,"""","""","""","""","""",sampler,94,171951,0.0-6.0-88.0,"""","""","""","""","""","""","""","""","""","""","""","""","2021-08-09 16:18:49",71.230.126.129,"Mozilla/5.0 (Macintosh; Intel Mac OS X 10_15_7) AppleWebKit/537.36 (KHTML, like Gecko) Chrome/92.0.4515.107 Safari/537.36",Macintosh,Chrome,92.0.4515.107,"OS X",10_15_7,5f461dd6c139dd6b46c7596cbd57cd79
190,1,"""","""","""","""","""",sampler,95,171951,0.0-6.0-89.0,"""","""","""","""","""","""","""","""","""","""","""","""","2021-08-09 16:18:49",71.230.126.129,"Mozilla/5.0 (Macintosh; Intel Mac OS X 10_15_7) AppleWebKit/537.36 (KHTML, like Gecko) Chrome/92.0.4515.107 Safari/537.36",Macintosh,Chrome,92.0.4515.107,"OS X",10_15_7,5f461dd6c139dd6b46c7596cbd57cd79
190,1,"""","""","""","""","""",sampler,96,171951,0.0-6.0-90.0,"""","""","""","""","""","""","""","""","""","""","""","""","2021-08-09 16:18:49",71.230.126.129,"Mozilla/5.0 (Macintosh; Intel Mac OS X 10_15_7) AppleWebKit/537.36 (KHTML, like Gecko) Chrome/92.0.4515.107 Safari/537.36",Macintosh,Chrome,92.0.4515.107,"OS X",10_15_7,5f461dd6c139dd6b46c7596cbd57cd79
190,1,"""","""","""","""","""",sampler,97,171951,0.0-6.0-91.0,"""","""","""","""","""","""","""","""","""","""","""","""","2021-08-09 16:18:49",71.230.126.129,"Mozilla/5.0 (Macintosh; Intel Mac OS X 10_15_7) AppleWebKit/537.36 (KHTML, like Gecko) Chrome/92.0.4515.107 Safari/537.36",Macintosh,Chrome,92.0.4515.107,"OS X",10_15_7,5f461dd6c139dd6b46c7596cbd57cd79
190,1,"""","""","""","""","""",sampler,98,171951,0.0-6.0-92.0,"""","""","""","""","""","""","""","""","""","""","""","""","2021-08-09 16:18:49",71.230.126.129,"Mozilla/5.0 (Macintosh; Intel Mac OS X 10_15_7) AppleWebKit/537.36 (KHTML, like Gecko) Chrome/92.0.4515.107 Safari/537.36",Macintosh,Chrome,92.0.4515.107,"OS X",10_15_7,5f461dd6c139dd6b46c7596cbd57cd79
190,1,"""","""","""","""","""",sampler,99,171951,0.0-6.0-93.0,"""","""","""","""","""","""","""","""","""","""","""","""","2021-08-09 16:18:49",71.230.126.129,"Mozilla/5.0 (Macintosh; Intel Mac OS X 10_15_7) AppleWebKit/537.36 (KHTML, like Gecko) Chrome/92.0.4515.107 Safari/537.36",Macintosh,Chrome,92.0.4515.107,"OS X",10_15_7,5f461dd6c139dd6b46c7596cbd57cd79
190,1,"""","""","""","""","""",sampler,100,171952,0.0-6.0-94.0,"""","""","""","""","""","""","""","""","""","""","""","""","2021-08-09 16:18:49",71.230.126.129,"Mozilla/5.0 (Macintosh; Intel Mac OS X 10_15_7) AppleWebKit/537.36 (KHTML, like Gecko) Chrome/92.0.4515.107 Safari/537.36",Macintosh,Chrome,92.0.4515.107,"OS X",10_15_7,5f461dd6c139dd6b46c7596cbd57cd79
190,1,"""","""","""","""","""",sampler,101,171952,0.0-6.0-95.0,"""","""","""","""","""","""","""","""","""","""","""","""","2021-08-09 16:18:49",71.230.126.129,"Mozilla/5.0 (Macintosh; Intel Mac OS X 10_15_7) AppleWebKit/537.36 (KHTML, like Gecko) Chrome/92.0.4515.107 Safari/537.36",Macintosh,Chrome,92.0.4515.107,"OS X",10_15_7,5f461dd6c139dd6b46c7596cbd57cd79
190,1,"""","""","""","""","""",sampler,102,171952,0.0-6.0-96.0,"""","""","""","""","""","""","""","""","""","""","""","""","2021-08-09 16:18:49",71.230.126.129,"Mozilla/5.0 (Macintosh; Intel Mac OS X 10_15_7) AppleWebKit/537.36 (KHTML, like Gecko) Chrome/92.0.4515.107 Safari/537.36",Macintosh,Chrome,92.0.4515.107,"OS X",10_15_7,5f461dd6c139dd6b46c7596cbd57cd79
190,1,"""","""","""","""","""",sampler,103,171952,0.0-6.0-97.0,"""","""","""","""","""","""","""","""","""","""","""","""","2021-08-09 16:18:49",71.230.126.129,"Mozilla/5.0 (Macintosh; Intel Mac OS X 10_15_7) AppleWebKit/537.36 (KHTML, like Gecko) Chrome/92.0.4515.107 Safari/537.36",Macintosh,Chrome,92.0.4515.107,"OS X",10_15_7,5f461dd6c139dd6b46c7596cbd57cd79
190,1,"""","""","""","""","""",sampler,104,171952,0.0-6.0-98.0,"""","""","""","""","""","""","""","""","""","""","""","""","2021-08-09 16:18:49",71.230.126.129,"Mozilla/5.0 (Macintosh; Intel Mac OS X 10_15_7) AppleWebKit/537.36 (KHTML, like Gecko) Chrome/92.0.4515.107 Safari/537.36",Macintosh,Chrome,92.0.4515.107,"OS X",10_15_7,5f461dd6c139dd6b46c7596cbd57cd79
190,1,"""","""","""","""","""",sampler,105,171952,0.0-6.0-99.0,"""","""","""","""","""","""","""","""","""","""","""","""","2021-08-09 16:18:49",71.230.126.129,"Mozilla/5.0 (Macintosh; Intel Mac OS X 10_15_7) AppleWebKit/537.36 (KHTML, like Gecko) Chrome/92.0.4515.107 Safari/537.36",Macintosh,Chrome,92.0.4515.107,"OS X",10_15_7,5f461dd6c139dd6b46c7596cbd57cd79
190,1,"""","""","""","""","""",sampler,106,171952,0.0-6.0-100.0,"""","""","""","""","""","""","""","""","""","""","""","""","2021-08-09 16:18:49",71.230.126.129,"Mozilla/5.0 (Macintosh; Intel Mac OS X 10_15_7) AppleWebKit/537.36 (KHTML, like Gecko) Chrome/92.0.4515.107 Safari/537.36",Macintosh,Chrome,92.0.4515.107,"OS X",10_15_7,5f461dd6c139dd6b46c7596cbd57cd79
190,1,"""","""","""","""","""",sampler,107,171953,0.0-6.0-101.0,"""","""","""","""","""","""","""","""","""","""","""","""","2021-08-09 16:18:49",71.230.126.129,"Mozilla/5.0 (Macintosh; Intel Mac OS X 10_15_7) AppleWebKit/537.36 (KHTML, like Gecko) Chrome/92.0.4515.107 Safari/537.36",Macintosh,Chrome,92.0.4515.107,"OS X",10_15_7,5f461dd6c139dd6b46c7596cbd57cd79
190,1,"""","""","""","""","""",sampler,108,171953,0.0-6.0-102.0,"""","""","""","""","""","""","""","""","""","""","""","""","2021-08-09 16:18:49",71.230.126.129,"Mozilla/5.0 (Macintosh; Intel Mac OS X 10_15_7) AppleWebKit/537.36 (KHTML, like Gecko) Chrome/92.0.4515.107 Safari/537.36",Macintosh,Chrome,92.0.4515.107,"OS X",10_15_7,5f461dd6c139dd6b46c7596cbd57cd79
190,1,"""","""","""","""","""",sampler,109,171953,0.0-6.0-103.0,"""","""","""","""","""","""","""","""","""","""","""","""","2021-08-09 16:18:49",71.230.126.129,"Mozilla/5.0 (Macintosh; Intel Mac OS X 10_15_7) AppleWebKit/537.36 (KHTML, like Gecko) Chrome/92.0.4515.107 Safari/537.36",Macintosh,Chrome,92.0.4515.107,"OS X",10_15_7,5f461dd6c139dd6b46c7596cbd57cd79
190,1,"""","""","""","""","""",sampler,110,171953,0.0-6.0-104.0,"""","""","""","""","""","""","""","""","""","""","""","""","2021-08-09 16:18:49",71.230.126.129,"Mozilla/5.0 (Macintosh; Intel Mac OS X 10_15_7) AppleWebKit/537.36 (KHTML, like Gecko) Chrome/92.0.4515.107 Safari/537.36",Macintosh,Chrome,92.0.4515.107,"OS X",10_15_7,5f461dd6c139dd6b46c7596cbd57cd79
190,1,"""","""","""","""","""",sampler,111,171953,0.0-6.0-105.0,"""","""","""","""","""","""","""","""","""","""","""","""","2021-08-09 16:18:49",71.230.126.129,"Mozilla/5.0 (Macintosh; Intel Mac OS X 10_15_7) AppleWebKit/537.36 (KHTML, like Gecko) Chrome/92.0.4515.107 Safari/537.36",Macintosh,Chrome,92.0.4515.107,"OS X",10_15_7,5f461dd6c139dd6b46c7596cbd57cd79
190,1,"""","""","""","""","""",sampler,112,171953,0.0-6.0-106.0,"""","""","""","""","""","""","""","""","""","""","""","""","2021-08-09 16:18:49",71.230.126.129,"Mozilla/5.0 (Macintosh; Intel Mac OS X 10_15_7) AppleWebKit/537.36 (KHTML, like Gecko) Chrome/92.0.4515.107 Safari/537.36",Macintosh,Chrome,92.0.4515.107,"OS X",10_15_7,5f461dd6c139dd6b46c7596cbd57cd79
190,1,"""","""","""","""","""",sampler,113,171954,0.0-6.0-107.0,"""","""","""","""","""","""","""","""","""","""","""","""","2021-08-09 16:18:49",71.230.126.129,"Mozilla/5.0 (Macintosh; Intel Mac OS X 10_15_7) AppleWebKit/537.36 (KHTML, like Gecko) Chrome/92.0.4515.107 Safari/537.36",Macintosh,Chrome,92.0.4515.107,"OS X",10_15_7,5f461dd6c139dd6b46c7596cbd57cd79
190,1,"""","""","""","""","""",sampler,114,171954,0.0-6.0-108.0,"""","""","""","""","""","""","""","""","""","""","""","""","2021-08-09 16:18:49",71.230.126.129,"Mozilla/5.0 (Macintosh; Intel Mac OS X 10_15_7) AppleWebKit/537.36 (KHTML, like Gecko) Chrome/92.0.4515.107 Safari/537.36",Macintosh,Chrome,92.0.4515.107,"OS X",10_15_7,5f461dd6c139dd6b46c7596cbd57cd79
190,1,"""","""","""","""","""",sampler,115,171954,0.0-6.0-109.0,"""","""","""","""","""","""","""","""","""","""","""","""","2021-08-09 16:18:49",71.230.126.129,"Mozilla/5.0 (Macintosh; Intel Mac OS X 10_15_7) AppleWebKit/537.36 (KHTML, like Gecko) Chrome/92.0.4515.107 Safari/537.36",Macintosh,Chrome,92.0.4515.107,"OS X",10_15_7,5f461dd6c139dd6b46c7596cbd57cd79
190,1,"""","""","""","""","""",sampler,116,171954,0.0-6.0-110.0,"""","""","""","""","""","""","""","""","""","""","""","""","2021-08-09 16:18:49",71.230.126.129,"Mozilla/5.0 (Macintosh; Intel Mac OS X 10_15_7) AppleWebKit/537.36 (KHTML, like Gecko) Chrome/92.0.4515.107 Safari/537.36",Macintosh,Chrome,92.0.4515.107,"OS X",10_15_7,5f461dd6c139dd6b46c7596cbd57cd79
190,1,"""","""","""","""","""",sampler,117,171954,0.0-6.0-111.0,"""","""","""","""","""","""","""","""","""","""","""","""","2021-08-09 16:18:49",71.230.126.129,"Mozilla/5.0 (Macintosh; Intel Mac OS X 10_15_7) AppleWebKit/537.36 (KHTML, like Gecko) Chrome/92.0.4515.107 Safari/537.36",Macintosh,Chrome,92.0.4515.107,"OS X",10_15_7,5f461dd6c139dd6b46c7596cbd57cd79
190,1,"""","""","""","""","""",sampler,118,171954,0.0-6.0-112.0,"""","""","""","""","""","""","""","""","""","""","""","""","2021-08-09 16:18:49",71.230.126.129,"Mozilla/5.0 (Macintosh; Intel Mac OS X 10_15_7) AppleWebKit/537.36 (KHTML, like Gecko) Chrome/92.0.4515.107 Safari/537.36",Macintosh,Chrome,92.0.4515.107,"OS X",10_15_7,5f461dd6c139dd6b46c7596cbd57cd79
190,1,"""","""","""","""","""",sampler,119,171954,0.0-6.0-113.0,"""","""","""","""","""","""","""","""","""","""","""","""","2021-08-09 16:18:49",71.230.126.129,"Mozilla/5.0 (Macintosh; Intel Mac OS X 10_15_7) AppleWebKit/537.36 (KHTML, like Gecko) Chrome/92.0.4515.107 Safari/537.36",Macintosh,Chrome,92.0.4515.107,"OS X",10_15_7,5f461dd6c139dd6b46c7596cbd57cd79
190,1,"""","""","""","""","""",sampler,120,171954,0.0-6.0-114.0,"""","""","""","""","""","""","""","""","""","""","""","""","2021-08-09 16:18:49",71.230.126.129,"Mozilla/5.0 (Macintosh; Intel Mac OS X 10_15_7) AppleWebKit/537.36 (KHTML, like Gecko) Chrome/92.0.4515.107 Safari/537.36",Macintosh,Chrome,92.0.4515.107,"OS X",10_15_7,5f461dd6c139dd6b46c7596cbd57cd79
190,1,"""","""","""","""","""",sampler,121,171955,0.0-6.0-115.0,"""","""","""","""","""","""","""","""","""","""","""","""","2021-08-09 16:18:49",71.230.126.129,"Mozilla/5.0 (Macintosh; Intel Mac OS X 10_15_7) AppleWebKit/537.36 (KHTML, like Gecko) Chrome/92.0.4515.107 Safari/537.36",Macintosh,Chrome,92.0.4515.107,"OS X",10_15_7,5f461dd6c139dd6b46c7596cbd57cd79
190,1,"""","""","""","""","""",sampler,122,171955,0.0-6.0-116.0,"""","""","""","""","""","""","""","""","""","""","""","""","2021-08-09 16:18:49",71.230.126.129,"Mozilla/5.0 (Macintosh; Intel Mac OS X 10_15_7) AppleWebKit/537.36 (KHTML, like Gecko) Chrome/92.0.4515.107 Safari/537.36",Macintosh,Chrome,92.0.4515.107,"OS X",10_15_7,5f461dd6c139dd6b46c7596cbd57cd79
190,1,"""","""","""","""","""",sampler,123,171955,0.0-6.0-117.0,"""","""","""","""","""","""","""","""","""","""","""","""","2021-08-09 16:18:49",71.230.126.129,"Mozilla/5.0 (Macintosh; Intel Mac OS X 10_15_7) AppleWebKit/537.36 (KHTML, like Gecko) Chrome/92.0.4515.107 Safari/537.36",Macintosh,Chrome,92.0.4515.107,"OS X",10_15_7,5f461dd6c139dd6b46c7596cbd57cd79
190,1,"""","""","""","""","""",sampler,124,171955,0.0-6.0-118.0,"""","""","""","""","""","""","""","""","""","""","""","""","2021-08-09 16:18:49",71.230.126.129,"Mozilla/5.0 (Macintosh; Intel Mac OS X 10_15_7) AppleWebKit/537.36 (KHTML, like Gecko) Chrome/92.0.4515.107 Safari/537.36",Macintosh,Chrome,92.0.4515.107,"OS X",10_15_7,5f461dd6c139dd6b46c7596cbd57cd79
190,1,"""","""","""","""","""",sampler,125,171955,0.0-6.0-119.0,"""","""","""","""","""","""","""","""","""","""","""","""","2021-08-09 16:18:49",71.230.126.129,"Mozilla/5.0 (Macintosh; Intel Mac OS X 10_15_7) AppleWebKit/537.36 (KHTML, like Gecko) Chrome/92.0.4515.107 Safari/537.36",Macintosh,Chrome,92.0.4515.107,"OS X",10_15_7,5f461dd6c139dd6b46c7596cbd57cd79
190,1,"""","""","""","""","""",sampler,126,171957,0.0-6.0-120.0,"""","""","""","""","""","""","""","""","""","""","""","""","2021-08-09 16:18:49",71.230.126.129,"Mozilla/5.0 (Macintosh; Intel Mac OS X 10_15_7) AppleWebKit/537.36 (KHTML, like Gecko) Chrome/92.0.4515.107 Safari/537.36",Macintosh,Chrome,92.0.4515.107,"OS X",10_15_7,5f461dd6c139dd6b46c7596cbd57cd79
190,1,"""","""","""","""","""",sampler,127,171958,0.0-6.0-121.0,"""","""","""","""","""","""","""","""","""","""","""","""","2021-08-09 16:18:49",71.230.126.129,"Mozilla/5.0 (Macintosh; Intel Mac OS X 10_15_7) AppleWebKit/537.36 (KHTML, like Gecko) Chrome/92.0.4515.107 Safari/537.36",Macintosh,Chrome,92.0.4515.107,"OS X",10_15_7,5f461dd6c139dd6b46c7596cbd57cd79
190,1,"""","""","""","""","""",sampler,128,171958,0.0-6.0-122.0,"""","""","""","""","""","""","""","""","""","""","""","""","2021-08-09 16:18:49",71.230.126.129,"Mozilla/5.0 (Macintosh; Intel Mac OS X 10_15_7) AppleWebKit/537.36 (KHTML, like Gecko) Chrome/92.0.4515.107 Safari/537.36",Macintosh,Chrome,92.0.4515.107,"OS X",10_15_7,5f461dd6c139dd6b46c7596cbd57cd79
190,1,"""","""","""","""","""",sampler,129,171958,0.0-6.0-123.0,"""","""","""","""","""","""","""","""","""","""","""","""","2021-08-09 16:18:49",71.230.126.129,"Mozilla/5.0 (Macintosh; Intel Mac OS X 10_15_7) AppleWebKit/537.36 (KHTML, like Gecko) Chrome/92.0.4515.107 Safari/537.36",Macintosh,Chrome,92.0.4515.107,"OS X",10_15_7,5f461dd6c139dd6b46c7596cbd57cd79
190,1,"""","""","""","""","""",sampler,130,171958,0.0-6.0-124.0,"""","""","""","""","""","""","""","""","""","""","""","""","2021-08-09 16:18:49",71.230.126.129,"Mozilla/5.0 (Macintosh; Intel Mac OS X 10_15_7) AppleWebKit/537.36 (KHTML, like Gecko) Chrome/92.0.4515.107 Safari/537.36",Macintosh,Chrome,92.0.4515.107,"OS X",10_15_7,5f461dd6c139dd6b46c7596cbd57cd79
190,1,"""","""","""","""","""",sampler,131,171958,0.0-6.0-125.0,"""","""","""","""","""","""","""","""","""","""","""","""","2021-08-09 16:18:49",71.230.126.129,"Mozilla/5.0 (Macintosh; Intel Mac OS X 10_15_7) AppleWebKit/537.36 (KHTML, like Gecko) Chrome/92.0.4515.107 Safari/537.36",Macintosh,Chrome,92.0.4515.107,"OS X",10_15_7,5f461dd6c139dd6b46c7596cbd57cd79
190,1,"""","""","""","""","""",sampler,132,171958,0.0-6.0-126.0,"""","""","""","""","""","""","""","""","""","""","""","""","2021-08-09 16:18:49",71.230.126.129,"Mozilla/5.0 (Macintosh; Intel Mac OS X 10_15_7) AppleWebKit/537.36 (KHTML, like Gecko) Chrome/92.0.4515.107 Safari/537.36",Macintosh,Chrome,92.0.4515.107,"OS X",10_15_7,5f461dd6c139dd6b46c7596cbd57cd79
190,1,"""","""","""","""","""",sampler,133,171959,0.0-6.0-127.0,"""","""","""","""","""","""","""","""","""","""","""","""","2021-08-09 16:18:49",71.230.126.129,"Mozilla/5.0 (Macintosh; Intel Mac OS X 10_15_7) AppleWebKit/537.36 (KHTML, like Gecko) Chrome/92.0.4515.107 Safari/537.36",Macintosh,Chrome,92.0.4515.107,"OS X",10_15_7,5f461dd6c139dd6b46c7596cbd57cd79
190,1,"""","""","""","""","""",sampler,134,171959,0.0-6.0-128.0,"""","""","""","""","""","""","""","""","""","""","""","""","2021-08-09 16:18:49",71.230.126.129,"Mozilla/5.0 (Macintosh; Intel Mac OS X 10_15_7) AppleWebKit/537.36 (KHTML, like Gecko) Chrome/92.0.4515.107 Safari/537.36",Macintosh,Chrome,92.0.4515.107,"OS X",10_15_7,5f461dd6c139dd6b46c7596cbd57cd79
190,1,"""","""","""","""","""",sampler,135,171959,0.0-6.0-129.0,"""","""","""","""","""","""","""","""","""","""","""","""","2021-08-09 16:18:49",71.230.126.129,"Mozilla/5.0 (Macintosh; Intel Mac OS X 10_15_7) AppleWebKit/537.36 (KHTML, like Gecko) Chrome/92.0.4515.107 Safari/537.36",Macintosh,Chrome,92.0.4515.107,"OS X",10_15_7,5f461dd6c139dd6b46c7596cbd57cd79
190,1,"""","""","""","""","""",sampler,136,171959,0.0-6.0-130.0,"""","""","""","""","""","""","""","""","""","""","""","""","2021-08-09 16:18:49",71.230.126.129,"Mozilla/5.0 (Macintosh; Intel Mac OS X 10_15_7) AppleWebKit/537.36 (KHTML, like Gecko) Chrome/92.0.4515.107 Safari/537.36",Macintosh,Chrome,92.0.4515.107,"OS X",10_15_7,5f461dd6c139dd6b46c7596cbd57cd79
190,1,"""","""","""","""","""",sampler,137,171959,0.0-6.0-131.0,"""","""","""","""","""","""","""","""","""","""","""","""","2021-08-09 16:18:49",71.230.126.129,"Mozilla/5.0 (Macintosh; Intel Mac OS X 10_15_7) AppleWebKit/537.36 (KHTML, like Gecko) Chrome/92.0.4515.107 Safari/537.36",Macintosh,Chrome,92.0.4515.107,"OS X",10_15_7,5f461dd6c139dd6b46c7596cbd57cd79
190,1,"""","""","""","""","""",sampler,138,171959,0.0-6.0-132.0,"""","""","""","""","""","""","""","""","""","""","""","""","2021-08-09 16:18:49",71.230.126.129,"Mozilla/5.0 (Macintosh; Intel Mac OS X 10_15_7) AppleWebKit/537.36 (KHTML, like Gecko) Chrome/92.0.4515.107 Safari/537.36",Macintosh,Chrome,92.0.4515.107,"OS X",10_15_7,5f461dd6c139dd6b46c7596cbd57cd79
190,1,"""","""","""","""","""",sampler,139,171959,0.0-6.0-133.0,"""","""","""","""","""","""","""","""","""","""","""","""","2021-08-09 16:18:49",71.230.126.129,"Mozilla/5.0 (Macintosh; Intel Mac OS X 10_15_7) AppleWebKit/537.36 (KHTML, like Gecko) Chrome/92.0.4515.107 Safari/537.36",Macintosh,Chrome,92.0.4515.107,"OS X",10_15_7,5f461dd6c139dd6b46c7596cbd57cd79
190,1,"""","""","""","""","""",sampler,140,171959,0.0-6.0-134.0,"""","""","""","""","""","""","""","""","""","""","""","""","2021-08-09 16:18:49",71.230.126.129,"Mozilla/5.0 (Macintosh; Intel Mac OS X 10_15_7) AppleWebKit/537.36 (KHTML, like Gecko) Chrome/92.0.4515.107 Safari/537.36",Macintosh,Chrome,92.0.4515.107,"OS X",10_15_7,5f461dd6c139dd6b46c7596cbd57cd79
190,1,"""","""","""","""","""",sampler,141,171960,0.0-6.0-135.0,"""","""","""","""","""","""","""","""","""","""","""","""","2021-08-09 16:18:49",71.230.126.129,"Mozilla/5.0 (Macintosh; Intel Mac OS X 10_15_7) AppleWebKit/537.36 (KHTML, like Gecko) Chrome/92.0.4515.107 Safari/537.36",Macintosh,Chrome,92.0.4515.107,"OS X",10_15_7,5f461dd6c139dd6b46c7596cbd57cd79
190,1,"""","""","""","""","""",sampler,142,171960,0.0-6.0-136.0,"""","""","""","""","""","""","""","""","""","""","""","""","2021-08-09 16:18:49",71.230.126.129,"Mozilla/5.0 (Macintosh; Intel Mac OS X 10_15_7) AppleWebKit/537.36 (KHTML, like Gecko) Chrome/92.0.4515.107 Safari/537.36",Macintosh,Chrome,92.0.4515.107,"OS X",10_15_7,5f461dd6c139dd6b46c7596cbd57cd79
190,1,"""","""","""","""","""",sampler,143,171960,0.0-6.0-137.0,"""","""","""","""","""","""","""","""","""","""","""","""","2021-08-09 16:18:49",71.230.126.129,"Mozilla/5.0 (Macintosh; Intel Mac OS X 10_15_7) AppleWebKit/537.36 (KHTML, like Gecko) Chrome/92.0.4515.107 Safari/537.36",Macintosh,Chrome,92.0.4515.107,"OS X",10_15_7,5f461dd6c139dd6b46c7596cbd57cd79
190,1,"""","""","""","""","""",sampler,144,171960,0.0-6.0-138.0,"""","""","""","""","""","""","""","""","""","""","""","""","2021-08-09 16:18:49",71.230.126.129,"Mozilla/5.0 (Macintosh; Intel Mac OS X 10_15_7) AppleWebKit/537.36 (KHTML, like Gecko) Chrome/92.0.4515.107 Safari/537.36",Macintosh,Chrome,92.0.4515.107,"OS X",10_15_7,5f461dd6c139dd6b46c7596cbd57cd79
190,1,"""","""","""","""","""",sampler,145,171960,0.0-6.0-139.0,"""","""","""","""","""","""","""","""","""","""","""","""","2021-08-09 16:18:49",71.230.126.129,"Mozilla/5.0 (Macintosh; Intel Mac OS X 10_15_7) AppleWebKit/537.36 (KHTML, like Gecko) Chrome/92.0.4515.107 Safari/537.36",Macintosh,Chrome,92.0.4515.107,"OS X",10_15_7,5f461dd6c139dd6b46c7596cbd57cd79
190,1,"""","""","""","""","""",sampler,146,171960,0.0-6.0-140.0,"""","""","""","""","""","""","""","""","""","""","""","""","2021-08-09 16:18:49",71.230.126.129,"Mozilla/5.0 (Macintosh; Intel Mac OS X 10_15_7) AppleWebKit/537.36 (KHTML, like Gecko) Chrome/92.0.4515.107 Safari/537.36",Macintosh,Chrome,92.0.4515.107,"OS X",10_15_7,5f461dd6c139dd6b46c7596cbd57cd79
190,1,"""","""","""","""","""",sampler,147,171960,0.0-6.0-141.0,"""","""","""","""","""","""","""","""","""","""","""","""","2021-08-09 16:18:49",71.230.126.129,"Mozilla/5.0 (Macintosh; Intel Mac OS X 10_15_7) AppleWebKit/537.36 (KHTML, like Gecko) Chrome/92.0.4515.107 Safari/537.36",Macintosh,Chrome,92.0.4515.107,"OS X",10_15_7,5f461dd6c139dd6b46c7596cbd57cd79
190,1,"""","""","""","""","""",sampler,148,171961,0.0-6.0-142.0,"""","""","""","""","""","""","""","""","""","""","""","""","2021-08-09 16:18:49",71.230.126.129,"Mozilla/5.0 (Macintosh; Intel Mac OS X 10_15_7) AppleWebKit/537.36 (KHTML, like Gecko) Chrome/92.0.4515.107 Safari/537.36",Macintosh,Chrome,92.0.4515.107,"OS X",10_15_7,5f461dd6c139dd6b46c7596cbd57cd79
190,1,"""","""","""","""","""",sampler,149,171961,0.0-6.0-143.0,"""","""","""","""","""","""","""","""","""","""","""","""","2021-08-09 16:18:49",71.230.126.129,"Mozilla/5.0 (Macintosh; Intel Mac OS X 10_15_7) AppleWebKit/537.36 (KHTML, like Gecko) Chrome/92.0.4515.107 Safari/537.36",Macintosh,Chrome,92.0.4515.107,"OS X",10_15_7,5f461dd6c139dd6b46c7596cbd57cd79
190,1,"""","""","""","""","""",sampler,150,171961,0.0-6.0-144.0,"""","""","""","""","""","""","""","""","""","""","""","""","2021-08-09 16:18:49",71.230.126.129,"Mozilla/5.0 (Macintosh; Intel Mac OS X 10_15_7) AppleWebKit/537.36 (KHTML, like Gecko) Chrome/92.0.4515.107 Safari/537.36",Macintosh,Chrome,92.0.4515.107,"OS X",10_15_7,5f461dd6c139dd6b46c7596cbd57cd79
190,1,"""","""","""","""","""",sampler,151,171961,0.0-6.0-145.0,"""","""","""","""","""","""","""","""","""","""","""","""","2021-08-09 16:18:49",71.230.126.129,"Mozilla/5.0 (Macintosh; Intel Mac OS X 10_15_7) AppleWebKit/537.36 (KHTML, like Gecko) Chrome/92.0.4515.107 Safari/537.36",Macintosh,Chrome,92.0.4515.107,"OS X",10_15_7,5f461dd6c139dd6b46c7596cbd57cd79
190,1,"""","""","""","""","""",sampler,152,171961,0.0-6.0-146.0,"""","""","""","""","""","""","""","""","""","""","""","""","2021-08-09 16:18:49",71.230.126.129,"Mozilla/5.0 (Macintosh; Intel Mac OS X 10_15_7) AppleWebKit/537.36 (KHTML, like Gecko) Chrome/92.0.4515.107 Safari/537.36",Macintosh,Chrome,92.0.4515.107,"OS X",10_15_7,5f461dd6c139dd6b46c7596cbd57cd79
190,1,"""","""","""","""","""",sampler,153,171961,0.0-6.0-147.0,"""","""","""","""","""","""","""","""","""","""","""","""","2021-08-09 16:18:49",71.230.126.129,"Mozilla/5.0 (Macintosh; Intel Mac OS X 10_15_7) AppleWebKit/537.36 (KHTML, like Gecko) Chrome/92.0.4515.107 Safari/537.36",Macintosh,Chrome,92.0.4515.107,"OS X",10_15_7,5f461dd6c139dd6b46c7596cbd57cd79
190,1,"""","""","""","""","""",sampler,154,171961,0.0-6.0-148.0,"""","""","""","""","""","""","""","""","""","""","""","""","2021-08-09 16:18:49",71.230.126.129,"Mozilla/5.0 (Macintosh; Intel Mac OS X 10_15_7) AppleWebKit/537.36 (KHTML, like Gecko) Chrome/92.0.4515.107 Safari/537.36",Macintosh,Chrome,92.0.4515.107,"OS X",10_15_7,5f461dd6c139dd6b46c7596cbd57cd79
190,1,"""","""","""","""","""",sampler,155,171962,0.0-6.0-149.0,"""","""","""","""","""","""","""","""","""","""","""","""","2021-08-09 16:18:49",71.230.126.129,"Mozilla/5.0 (Macintosh; Intel Mac OS X 10_15_7) AppleWebKit/537.36 (KHTML, like Gecko) Chrome/92.0.4515.107 Safari/537.36",Macintosh,Chrome,92.0.4515.107,"OS X",10_15_7,5f461dd6c139dd6b46c7596cbd57cd79
190,1,"""","""","""","""","""",sampler,156,171962,0.0-6.0-150.0,"""","""","""","""","""","""","""","""","""","""","""","""","2021-08-09 16:18:49",71.230.126.129,"Mozilla/5.0 (Macintosh; Intel Mac OS X 10_15_7) AppleWebKit/537.36 (KHTML, like Gecko) Chrome/92.0.4515.107 Safari/537.36",Macintosh,Chrome,92.0.4515.107,"OS X",10_15_7,5f461dd6c139dd6b46c7596cbd57cd79
190,1,"""","""","""","""","""",sampler,157,171962,0.0-6.0-151.0,"""","""","""","""","""","""","""","""","""","""","""","""","2021-08-09 16:18:49",71.230.126.129,"Mozilla/5.0 (Macintosh; Intel Mac OS X 10_15_7) AppleWebKit/537.36 (KHTML, like Gecko) Chrome/92.0.4515.107 Safari/537.36",Macintosh,Chrome,92.0.4515.107,"OS X",10_15_7,5f461dd6c139dd6b46c7596cbd57cd79
190,1,"""","""","""","""","""",sampler,158,171962,0.0-6.0-152.0,"""","""","""","""","""","""","""","""","""","""","""","""","2021-08-09 16:18:49",71.230.126.129,"Mozilla/5.0 (Macintosh; Intel Mac OS X 10_15_7) AppleWebKit/537.36 (KHTML, like Gecko) Chrome/92.0.4515.107 Safari/537.36",Macintosh,Chrome,92.0.4515.107,"OS X",10_15_7,5f461dd6c139dd6b46c7596cbd57cd79
190,1,"""","""","""","""","""",sampler,159,171962,0.0-6.0-153.0,"""","""","""","""","""","""","""","""","""","""","""","""","2021-08-09 16:18:49",71.230.126.129,"Mozilla/5.0 (Macintosh; Intel Mac OS X 10_15_7) AppleWebKit/537.36 (KHTML, like Gecko) Chrome/92.0.4515.107 Safari/537.36",Macintosh,Chrome,92.0.4515.107,"OS X",10_15_7,5f461dd6c139dd6b46c7596cbd57cd79
190,1,"""","""","""","""","""",sampler,160,171962,0.0-6.0-154.0,"""","""","""","""","""","""","""","""","""","""","""","""","2021-08-09 16:18:49",71.230.126.129,"Mozilla/5.0 (Macintosh; Intel Mac OS X 10_15_7) AppleWebKit/537.36 (KHTML, like Gecko) Chrome/92.0.4515.107 Safari/537.36",Macintosh,Chrome,92.0.4515.107,"OS X",10_15_7,5f461dd6c139dd6b46c7596cbd57cd79
190,1,"""","""","""","""","""",sampler,161,171962,0.0-6.0-155.0,"""","""","""","""","""","""","""","""","""","""","""","""","2021-08-09 16:18:49",71.230.126.129,"Mozilla/5.0 (Macintosh; Intel Mac OS X 10_15_7) AppleWebKit/537.36 (KHTML, like Gecko) Chrome/92.0.4515.107 Safari/537.36",Macintosh,Chrome,92.0.4515.107,"OS X",10_15_7,5f461dd6c139dd6b46c7596cbd57cd79
190,1,"""","""","""","""","""",sampler,162,171963,0.0-6.0-156.0,"""","""","""","""","""","""","""","""","""","""","""","""","2021-08-09 16:18:49",71.230.126.129,"Mozilla/5.0 (Macintosh; Intel Mac OS X 10_15_7) AppleWebKit/537.36 (KHTML, like Gecko) Chrome/92.0.4515.107 Safari/537.36",Macintosh,Chrome,92.0.4515.107,"OS X",10_15_7,5f461dd6c139dd6b46c7596cbd57cd79
190,1,"""","""","""","""","""",sampler,163,171963,0.0-6.0-157.0,"""","""","""","""","""","""","""","""","""","""","""","""","2021-08-09 16:18:49",71.230.126.129,"Mozilla/5.0 (Macintosh; Intel Mac OS X 10_15_7) AppleWebKit/537.36 (KHTML, like Gecko) Chrome/92.0.4515.107 Safari/537.36",Macintosh,Chrome,92.0.4515.107,"OS X",10_15_7,5f461dd6c139dd6b46c7596cbd57cd79
190,1,"""","""","""","""","""",sampler,164,171963,0.0-6.0-158.0,"""","""","""","""","""","""","""","""","""","""","""","""","2021-08-09 16:18:49",71.230.126.129,"Mozilla/5.0 (Macintosh; Intel Mac OS X 10_15_7) AppleWebKit/537.36 (KHTML, like Gecko) Chrome/92.0.4515.107 Safari/537.36",Macintosh,Chrome,92.0.4515.107,"OS X",10_15_7,5f461dd6c139dd6b46c7596cbd57cd79
190,1,"""","""","""","""","""",sampler,165,171963,0.0-6.0-159.0,"""","""","""","""","""","""","""","""","""","""","""","""","2021-08-09 16:18:49",71.230.126.129,"Mozilla/5.0 (Macintosh; Intel Mac OS X 10_15_7) AppleWebKit/537.36 (KHTML, like Gecko) Chrome/92.0.4515.107 Safari/537.36",Macintosh,Chrome,92.0.4515.107,"OS X",10_15_7,5f461dd6c139dd6b46c7596cbd57cd79
190,1,"""","""","""","""","""",sampler,166,171963,0.0-6.0-160.0,"""","""","""","""","""","""","""","""","""","""","""","""","2021-08-09 16:18:49",71.230.126.129,"Mozilla/5.0 (Macintosh; Intel Mac OS X 10_15_7) AppleWebKit/537.36 (KHTML, like Gecko) Chrome/92.0.4515.107 Safari/537.36",Macintosh,Chrome,92.0.4515.107,"OS X",10_15_7,5f461dd6c139dd6b46c7596cbd57cd79
190,1,"""","""","""","""","""",sampler,167,171964,0.0-6.0-161.0,"""","""","""","""","""","""","""","""","""","""","""","""","2021-08-09 16:18:49",71.230.126.129,"Mozilla/5.0 (Macintosh; Intel Mac OS X 10_15_7) AppleWebKit/537.36 (KHTML, like Gecko) Chrome/92.0.4515.107 Safari/537.36",Macintosh,Chrome,92.0.4515.107,"OS X",10_15_7,5f461dd6c139dd6b46c7596cbd57cd79
190,1,"""","""","""","""","""",sampler,168,171964,0.0-6.0-162.0,"""","""","""","""","""","""","""","""","""","""","""","""","2021-08-09 16:18:49",71.230.126.129,"Mozilla/5.0 (Macintosh; Intel Mac OS X 10_15_7) AppleWebKit/537.36 (KHTML, like Gecko) Chrome/92.0.4515.107 Safari/537.36",Macintosh,Chrome,92.0.4515.107,"OS X",10_15_7,5f461dd6c139dd6b46c7596cbd57cd79
190,1,"""","""","""","""","""",sampler,169,171964,0.0-6.0-163.0,"""","""","""","""","""","""","""","""","""","""","""","""","2021-08-09 16:18:49",71.230.126.129,"Mozilla/5.0 (Macintosh; Intel Mac OS X 10_15_7) AppleWebKit/537.36 (KHTML, like Gecko) Chrome/92.0.4515.107 Safari/537.36",Macintosh,Chrome,92.0.4515.107,"OS X",10_15_7,5f461dd6c139dd6b46c7596cbd57cd79
190,1,"""","""","""","""","""",sampler,170,171964,0.0-6.0-164.0,"""","""","""","""","""","""","""","""","""","""","""","""","2021-08-09 16:18:49",71.230.126.129,"Mozilla/5.0 (Macintosh; Intel Mac OS X 10_15_7) AppleWebKit/537.36 (KHTML, like Gecko) Chrome/92.0.4515.107 Safari/537.36",Macintosh,Chrome,92.0.4515.107,"OS X",10_15_7,5f461dd6c139dd6b46c7596cbd57cd79
190,1,"""","""","""","""","""",sampler,171,171964,0.0-6.0-165.0,"""","""","""","""","""","""","""","""","""","""","""","""","2021-08-09 16:18:49",71.230.126.129,"Mozilla/5.0 (Macintosh; Intel Mac OS X 10_15_7) AppleWebKit/537.36 (KHTML, like Gecko) Chrome/92.0.4515.107 Safari/537.36",Macintosh,Chrome,92.0.4515.107,"OS X",10_15_7,5f461dd6c139dd6b46c7596cbd57cd79
190,1,"""","""","""","""","""",sampler,172,171964,0.0-6.0-166.0,"""","""","""","""","""","""","""","""","""","""","""","""","2021-08-09 16:18:49",71.230.126.129,"Mozilla/5.0 (Macintosh; Intel Mac OS X 10_15_7) AppleWebKit/537.36 (KHTML, like Gecko) Chrome/92.0.4515.107 Safari/537.36",Macintosh,Chrome,92.0.4515.107,"OS X",10_15_7,5f461dd6c139dd6b46c7596cbd57cd79
190,1,"""","""","""","""","""",sampler,173,171964,0.0-6.0-167.0,"""","""","""","""","""","""","""","""","""","""","""","""","2021-08-09 16:18:49",71.230.126.129,"Mozilla/5.0 (Macintosh; Intel Mac OS X 10_15_7) AppleWebKit/537.36 (KHTML, like Gecko) Chrome/92.0.4515.107 Safari/537.36",Macintosh,Chrome,92.0.4515.107,"OS X",10_15_7,5f461dd6c139dd6b46c7596cbd57cd79
190,1,"""","""","""","""","""",sampler,174,171964,0.0-6.0-168.0,"""","""","""","""","""","""","""","""","""","""","""","""","2021-08-09 16:18:49",71.230.126.129,"Mozilla/5.0 (Macintosh; Intel Mac OS X 10_15_7) AppleWebKit/537.36 (KHTML, like Gecko) Chrome/92.0.4515.107 Safari/537.36",Macintosh,Chrome,92.0.4515.107,"OS X",10_15_7,5f461dd6c139dd6b46c7596cbd57cd79
190,1,"""","""","""","""","""",sampler,175,171964,0.0-6.0-169.0,"""","""","""","""","""","""","""","""","""","""","""","""","2021-08-09 16:18:49",71.230.126.129,"Mozilla/5.0 (Macintosh; Intel Mac OS X 10_15_7) AppleWebKit/537.36 (KHTML, like Gecko) Chrome/92.0.4515.107 Safari/537.36",Macintosh,Chrome,92.0.4515.107,"OS X",10_15_7,5f461dd6c139dd6b46c7596cbd57cd79
190,1,"""","""","""","""","""",sampler,176,171965,0.0-6.0-170.0,"""","""","""","""","""","""","""","""","""","""","""","""","2021-08-09 16:18:49",71.230.126.129,"Mozilla/5.0 (Macintosh; Intel Mac OS X 10_15_7) AppleWebKit/537.36 (KHTML, like Gecko) Chrome/92.0.4515.107 Safari/537.36",Macintosh,Chrome,92.0.4515.107,"OS X",10_15_7,5f461dd6c139dd6b46c7596cbd57cd79
190,1,"""","""","""","""","""",sampler,177,171965,0.0-6.0-171.0,"""","""","""","""","""","""","""","""","""","""","""","""","2021-08-09 16:18:49",71.230.126.129,"Mozilla/5.0 (Macintosh; Intel Mac OS X 10_15_7) AppleWebKit/537.36 (KHTML, like Gecko) Chrome/92.0.4515.107 Safari/537.36",Macintosh,Chrome,92.0.4515.107,"OS X",10_15_7,5f461dd6c139dd6b46c7596cbd57cd79
190,1,"""","""","""","""","""",sampler,178,171965,0.0-6.0-172.0,"""","""","""","""","""","""","""","""","""","""","""","""","2021-08-09 16:18:49",71.230.126.129,"Mozilla/5.0 (Macintosh; Intel Mac OS X 10_15_7) AppleWebKit/537.36 (KHTML, like Gecko) Chrome/92.0.4515.107 Safari/537.36",Macintosh,Chrome,92.0.4515.107,"OS X",10_15_7,5f461dd6c139dd6b46c7596cbd57cd79
190,1,"""","""","""","""","""",sampler,179,171965,0.0-6.0-173.0,"""","""","""","""","""","""","""","""","""","""","""","""","2021-08-09 16:18:49",71.230.126.129,"Mozilla/5.0 (Macintosh; Intel Mac OS X 10_15_7) AppleWebKit/537.36 (KHTML, like Gecko) Chrome/92.0.4515.107 Safari/537.36",Macintosh,Chrome,92.0.4515.107,"OS X",10_15_7,5f461dd6c139dd6b46c7596cbd57cd79
190,1,"""","""","""","""","""",sampler,180,171965,0.0-6.0-174.0,"""","""","""","""","""","""","""","""","""","""","""","""","2021-08-09 16:18:49",71.230.126.129,"Mozilla/5.0 (Macintosh; Intel Mac OS X 10_15_7) AppleWebKit/537.36 (KHTML, like Gecko) Chrome/92.0.4515.107 Safari/537.36",Macintosh,Chrome,92.0.4515.107,"OS X",10_15_7,5f461dd6c139dd6b46c7596cbd57cd79
190,1,"""","""","""","""","""",sampler,181,171965,0.0-6.0-175.0,"""","""","""","""","""","""","""","""","""","""","""","""","2021-08-09 16:18:49",71.230.126.129,"Mozilla/5.0 (Macintosh; Intel Mac OS X 10_15_7) AppleWebKit/537.36 (KHTML, like Gecko) Chrome/92.0.4515.107 Safari/537.36",Macintosh,Chrome,92.0.4515.107,"OS X",10_15_7,5f461dd6c139dd6b46c7596cbd57cd79
190,1,"""","""","""","""","""",sampler,182,171965,0.0-6.0-176.0,"""","""","""","""","""","""","""","""","""","""","""","""","2021-08-09 16:18:49",71.230.126.129,"Mozilla/5.0 (Macintosh; Intel Mac OS X 10_15_7) AppleWebKit/537.36 (KHTML, like Gecko) Chrome/92.0.4515.107 Safari/537.36",Macintosh,Chrome,92.0.4515.107,"OS X",10_15_7,5f461dd6c139dd6b46c7596cbd57cd79
190,1,"""","""","""","""","""",sampler,183,171966,0.0-6.0-177.0,"""","""","""","""","""","""","""","""","""","""","""","""","2021-08-09 16:18:49",71.230.126.129,"Mozilla/5.0 (Macintosh; Intel Mac OS X 10_15_7) AppleWebKit/537.36 (KHTML, like Gecko) Chrome/92.0.4515.107 Safari/537.36",Macintosh,Chrome,92.0.4515.107,"OS X",10_15_7,5f461dd6c139dd6b46c7596cbd57cd79
190,1,"""","""","""","""","""",sampler,184,171966,0.0-6.0-178.0,"""","""","""","""","""","""","""","""","""","""","""","""","2021-08-09 16:18:49",71.230.126.129,"Mozilla/5.0 (Macintosh; Intel Mac OS X 10_15_7) AppleWebKit/537.36 (KHTML, like Gecko) Chrome/92.0.4515.107 Safari/537.36",Macintosh,Chrome,92.0.4515.107,"OS X",10_15_7,5f461dd6c139dd6b46c7596cbd57cd79
190,1,"""","""","""","""","""",sampler,185,171966,0.0-6.0-179.0,"""","""","""","""","""","""","""","""","""","""","""","""","2021-08-09 16:18:49",71.230.126.129,"Mozilla/5.0 (Macintosh; Intel Mac OS X 10_15_7) AppleWebKit/537.36 (KHTML, like Gecko) Chrome/92.0.4515.107 Safari/537.36",Macintosh,Chrome,92.0.4515.107,"OS X",10_15_7,5f461dd6c139dd6b46c7596cbd57cd79
190,1,"""","""","""","""","""",sampler,186,171966,0.0-6.0-180.0,"""","""","""","""","""","""","""","""","""","""","""","""","2021-08-09 16:18:49",71.230.126.129,"Mozilla/5.0 (Macintosh; Intel Mac OS X 10_15_7) AppleWebKit/537.36 (KHTML, like Gecko) Chrome/92.0.4515.107 Safari/537.36",Macintosh,Chrome,92.0.4515.107,"OS X",10_15_7,5f461dd6c139dd6b46c7596cbd57cd79
190,1,"""","""","""","""","""",sampler,187,171966,0.0-6.0-181.0,"""","""","""","""","""","""","""","""","""","""","""","""","2021-08-09 16:18:49",71.230.126.129,"Mozilla/5.0 (Macintosh; Intel Mac OS X 10_15_7) AppleWebKit/537.36 (KHTML, like Gecko) Chrome/92.0.4515.107 Safari/537.36",Macintosh,Chrome,92.0.4515.107,"OS X",10_15_7,5f461dd6c139dd6b46c7596cbd57cd79
190,1,"""","""","""","""","""",sampler,188,171966,0.0-6.0-182.0,"""","""","""","""","""","""","""","""","""","""","""","""","2021-08-09 16:18:49",71.230.126.129,"Mozilla/5.0 (Macintosh; Intel Mac OS X 10_15_7) AppleWebKit/537.36 (KHTML, like Gecko) Chrome/92.0.4515.107 Safari/537.36",Macintosh,Chrome,92.0.4515.107,"OS X",10_15_7,5f461dd6c139dd6b46c7596cbd57cd79
190,1,"""","""","""","""","""",sampler,189,171966,0.0-6.0-183.0,"""","""","""","""","""","""","""","""","""","""","""","""","2021-08-09 16:18:49",71.230.126.129,"Mozilla/5.0 (Macintosh; Intel Mac OS X 10_15_7) AppleWebKit/537.36 (KHTML, like Gecko) Chrome/92.0.4515.107 Safari/537.36",Macintosh,Chrome,92.0.4515.107,"OS X",10_15_7,5f461dd6c139dd6b46c7596cbd57cd79
190,1,"""","""","""","""","""",sampler,190,171966,0.0-6.0-184.0,"""","""","""","""","""","""","""","""","""","""","""","""","2021-08-09 16:18:49",71.230.126.129,"Mozilla/5.0 (Macintosh; Intel Mac OS X 10_15_7) AppleWebKit/537.36 (KHTML, like Gecko) Chrome/92.0.4515.107 Safari/537.36",Macintosh,Chrome,92.0.4515.107,"OS X",10_15_7,5f461dd6c139dd6b46c7596cbd57cd79
190,1,"""","""","""","""","""",sampler,191,171966,0.0-6.0-185.0,"""","""","""","""","""","""","""","""","""","""","""","""","2021-08-09 16:18:49",71.230.126.129,"Mozilla/5.0 (Macintosh; Intel Mac OS X 10_15_7) AppleWebKit/537.36 (KHTML, like Gecko) Chrome/92.0.4515.107 Safari/537.36",Macintosh,Chrome,92.0.4515.107,"OS X",10_15_7,5f461dd6c139dd6b46c7596cbd57cd79
190,1,"""","""","""","""","""",sampler,192,171967,0.0-6.0-186.0,"""","""","""","""","""","""","""","""","""","""","""","""","2021-08-09 16:18:49",71.230.126.129,"Mozilla/5.0 (Macintosh; Intel Mac OS X 10_15_7) AppleWebKit/537.36 (KHTML, like Gecko) Chrome/92.0.4515.107 Safari/537.36",Macintosh,Chrome,92.0.4515.107,"OS X",10_15_7,5f461dd6c139dd6b46c7596cbd57cd79
190,1,"""","""","""","""","""",sampler,193,171967,0.0-6.0-187.0,"""","""","""","""","""","""","""","""","""","""","""","""","2021-08-09 16:18:49",71.230.126.129,"Mozilla/5.0 (Macintosh; Intel Mac OS X 10_15_7) AppleWebKit/537.36 (KHTML, like Gecko) Chrome/92.0.4515.107 Safari/537.36",Macintosh,Chrome,92.0.4515.107,"OS X",10_15_7,5f461dd6c139dd6b46c7596cbd57cd79
190,1,"""","""","""","""","""",sampler,194,171967,0.0-6.0-188.0,"""","""","""","""","""","""","""","""","""","""","""","""","2021-08-09 16:18:49",71.230.126.129,"Mozilla/5.0 (Macintosh; Intel Mac OS X 10_15_7) AppleWebKit/537.36 (KHTML, like Gecko) Chrome/92.0.4515.107 Safari/537.36",Macintosh,Chrome,92.0.4515.107,"OS X",10_15_7,5f461dd6c139dd6b46c7596cbd57cd79
190,1,"""","""","""","""","""",sampler,195,171967,0.0-6.0-189.0,"""","""","""","""","""","""","""","""","""","""","""","""","2021-08-09 16:18:49",71.230.126.129,"Mozilla/5.0 (Macintosh; Intel Mac OS X 10_15_7) AppleWebKit/537.36 (KHTML, like Gecko) Chrome/92.0.4515.107 Safari/537.36",Macintosh,Chrome,92.0.4515.107,"OS X",10_15_7,5f461dd6c139dd6b46c7596cbd57cd79
190,1,"""","""","""","""","""",sampler,196,171967,0.0-6.0-190.0,"""","""","""","""","""","""","""","""","""","""","""","""","2021-08-09 16:18:49",71.230.126.129,"Mozilla/5.0 (Macintosh; Intel Mac OS X 10_15_7) AppleWebKit/537.36 (KHTML, like Gecko) Chrome/92.0.4515.107 Safari/537.36",Macintosh,Chrome,92.0.4515.107,"OS X",10_15_7,5f461dd6c139dd6b46c7596cbd57cd79
190,1,"""","""","""","""","""",sampler,197,171968,0.0-6.0-191.0,"""","""","""","""","""","""","""","""","""","""","""","""","2021-08-09 16:18:49",71.230.126.129,"Mozilla/5.0 (Macintosh; Intel Mac OS X 10_15_7) AppleWebKit/537.36 (KHTML, like Gecko) Chrome/92.0.4515.107 Safari/537.36",Macintosh,Chrome,92.0.4515.107,"OS X",10_15_7,5f461dd6c139dd6b46c7596cbd57cd79
190,1,"""","""","""","""","""",sampler,198,171968,0.0-6.0-192.0,"""","""","""","""","""","""","""","""","""","""","""","""","2021-08-09 16:18:49",71.230.126.129,"Mozilla/5.0 (Macintosh; Intel Mac OS X 10_15_7) AppleWebKit/537.36 (KHTML, like Gecko) Chrome/92.0.4515.107 Safari/537.36",Macintosh,Chrome,92.0.4515.107,"OS X",10_15_7,5f461dd6c139dd6b46c7596cbd57cd79
190,1,"""","""","""","""","""",sampler,199,171968,0.0-6.0-193.0,"""","""","""","""","""","""","""","""","""","""","""","""","2021-08-09 16:18:49",71.230.126.129,"Mozilla/5.0 (Macintosh; Intel Mac OS X 10_15_7) AppleWebKit/537.36 (KHTML, like Gecko) Chrome/92.0.4515.107 Safari/537.36",Macintosh,Chrome,92.0.4515.107,"OS X",10_15_7,5f461dd6c139dd6b46c7596cbd57cd79
190,1,"""","""","""","""","""",sampler,200,171968,0.0-6.0-194.0,"""","""","""","""","""","""","""","""","""","""","""","""","2021-08-09 16:18:49",71.230.126.129,"Mozilla/5.0 (Macintosh; Intel Mac OS X 10_15_7) AppleWebKit/537.36 (KHTML, like Gecko) Chrome/92.0.4515.107 Safari/537.36",Macintosh,Chrome,92.0.4515.107,"OS X",10_15_7,5f461dd6c139dd6b46c7596cbd57cd79
190,1,"""","""","""","""","""",sampler,201,171969,0.0-6.0-195.0,"""","""","""","""","""","""","""","""","""","""","""","""","2021-08-09 16:18:49",71.230.126.129,"Mozilla/5.0 (Macintosh; Intel Mac OS X 10_15_7) AppleWebKit/537.36 (KHTML, like Gecko) Chrome/92.0.4515.107 Safari/537.36",Macintosh,Chrome,92.0.4515.107,"OS X",10_15_7,5f461dd6c139dd6b46c7596cbd57cd79
190,1,"""","""","""","""","""",sampler,202,171969,0.0-6.0-196.0,"""","""","""","""","""","""","""","""","""","""","""","""","2021-08-09 16:18:49",71.230.126.129,"Mozilla/5.0 (Macintosh; Intel Mac OS X 10_15_7) AppleWebKit/537.36 (KHTML, like Gecko) Chrome/92.0.4515.107 Safari/537.36",Macintosh,Chrome,92.0.4515.107,"OS X",10_15_7,5f461dd6c139dd6b46c7596cbd57cd79
190,1,"""","""","""","""","""",sampler,203,171969,0.0-6.0-197.0,"""","""","""","""","""","""","""","""","""","""","""","""","2021-08-09 16:18:49",71.230.126.129,"Mozilla/5.0 (Macintosh; Intel Mac OS X 10_15_7) AppleWebKit/537.36 (KHTML, like Gecko) Chrome/92.0.4515.107 Safari/537.36",Macintosh,Chrome,92.0.4515.107,"OS X",10_15_7,5f461dd6c139dd6b46c7596cbd57cd79
190,1,"""","""","""","""","""",sampler,204,171969,0.0-6.0-198.0,"""","""","""","""","""","""","""","""","""","""","""","""","2021-08-09 16:18:49",71.230.126.129,"Mozilla/5.0 (Macintosh; Intel Mac OS X 10_15_7) AppleWebKit/537.36 (KHTML, like Gecko) Chrome/92.0.4515.107 Safari/537.36",Macintosh,Chrome,92.0.4515.107,"OS X",10_15_7,5f461dd6c139dd6b46c7596cbd57cd79
190,1,"""","""","""","""","""",sampler,205,171969,0.0-6.0-199.0,"""","""","""","""","""","""","""","""","""","""","""","""","2021-08-09 16:18:49",71.230.126.129,"Mozilla/5.0 (Macintosh; Intel Mac OS X 10_15_7) AppleWebKit/537.36 (KHTML, like Gecko) Chrome/92.0.4515.107 Safari/537.36",Macintosh,Chrome,92.0.4515.107,"OS X",10_15_7,5f461dd6c139dd6b46c7596cbd57cd79
190,1,"""","""","""","""","""",sampler,206,171969,0.0-6.0-200.0,"""","""","""","""","""","""","""","""","""","""","""","""","2021-08-09 16:18:49",71.230.126.129,"Mozilla/5.0 (Macintosh; Intel Mac OS X 10_15_7) AppleWebKit/537.36 (KHTML, like Gecko) Chrome/92.0.4515.107 Safari/537.36",Macintosh,Chrome,92.0.4515.107,"OS X",10_15_7,5f461dd6c139dd6b46c7596cbd57cd79
190,1,"""","""","""","""","""",sampler,207,171969,0.0-6.0-201.0,"""","""","""","""","""","""","""","""","""","""","""","""","2021-08-09 16:18:49",71.230.126.129,"Mozilla/5.0 (Macintosh; Intel Mac OS X 10_15_7) AppleWebKit/537.36 (KHTML, like Gecko) Chrome/92.0.4515.107 Safari/537.36",Macintosh,Chrome,92.0.4515.107,"OS X",10_15_7,5f461dd6c139dd6b46c7596cbd57cd79
190,1,"""","""","""","""","""",sampler,208,171969,0.0-6.0-202.0,"""","""","""","""","""","""","""","""","""","""","""","""","2021-08-09 16:18:49",71.230.126.129,"Mozilla/5.0 (Macintosh; Intel Mac OS X 10_15_7) AppleWebKit/537.36 (KHTML, like Gecko) Chrome/92.0.4515.107 Safari/537.36",Macintosh,Chrome,92.0.4515.107,"OS X",10_15_7,5f461dd6c139dd6b46c7596cbd57cd79
190,1,"""","""","""","""","""",sampler,209,171969,0.0-6.0-203.0,"""","""","""","""","""","""","""","""","""","""","""","""","2021-08-09 16:18:49",71.230.126.129,"Mozilla/5.0 (Macintosh; Intel Mac OS X 10_15_7) AppleWebKit/537.36 (KHTML, like Gecko) Chrome/92.0.4515.107 Safari/537.36",Macintosh,Chrome,92.0.4515.107,"OS X",10_15_7,5f461dd6c139dd6b46c7596cbd57cd79
190,1,"""","""","""","""","""",sampler,210,171970,0.0-6.0-204.0,"""","""","""","""","""","""","""","""","""","""","""","""","2021-08-09 16:18:49",71.230.126.129,"Mozilla/5.0 (Macintosh; Intel Mac OS X 10_15_7) AppleWebKit/537.36 (KHTML, like Gecko) Chrome/92.0.4515.107 Safari/537.36",Macintosh,Chrome,92.0.4515.107,"OS X",10_15_7,5f461dd6c139dd6b46c7596cbd57cd79
190,1,"""","""","""","""","""",sampler,211,171970,0.0-6.0-205.0,"""","""","""","""","""","""","""","""","""","""","""","""","2021-08-09 16:18:49",71.230.126.129,"Mozilla/5.0 (Macintosh; Intel Mac OS X 10_15_7) AppleWebKit/537.36 (KHTML, like Gecko) Chrome/92.0.4515.107 Safari/537.36",Macintosh,Chrome,92.0.4515.107,"OS X",10_15_7,5f461dd6c139dd6b46c7596cbd57cd79
190,1,"""","""","""","""","""",sampler,212,171970,0.0-6.0-206.0,"""","""","""","""","""","""","""","""","""","""","""","""","2021-08-09 16:18:49",71.230.126.129,"Mozilla/5.0 (Macintosh; Intel Mac OS X 10_15_7) AppleWebKit/537.36 (KHTML, like Gecko) Chrome/92.0.4515.107 Safari/537.36",Macintosh,Chrome,92.0.4515.107,"OS X",10_15_7,5f461dd6c139dd6b46c7596cbd57cd79
190,1,"""","""","""","""","""",sampler,213,171970,0.0-6.0-207.0,"""","""","""","""","""","""","""","""","""","""","""","""","2021-08-09 16:18:49",71.230.126.129,"Mozilla/5.0 (Macintosh; Intel Mac OS X 10_15_7) AppleWebKit/537.36 (KHTML, like Gecko) Chrome/92.0.4515.107 Safari/537.36",Macintosh,Chrome,92.0.4515.107,"OS X",10_15_7,5f461dd6c139dd6b46c7596cbd57cd79
190,1,"""","""","""","""","""",sampler,214,171970,0.0-6.0-208.0,"""","""","""","""","""","""","""","""","""","""","""","""","2021-08-09 16:18:49",71.230.126.129,"Mozilla/5.0 (Macintosh; Intel Mac OS X 10_15_7) AppleWebKit/537.36 (KHTML, like Gecko) Chrome/92.0.4515.107 Safari/537.36",Macintosh,Chrome,92.0.4515.107,"OS X",10_15_7,5f461dd6c139dd6b46c7596cbd57cd79
190,1,"""","""","""","""","""",sampler,215,171971,0.0-6.0-209.0,"""","""","""","""","""","""","""","""","""","""","""","""","2021-08-09 16:18:49",71.230.126.129,"Mozilla/5.0 (Macintosh; Intel Mac OS X 10_15_7) AppleWebKit/537.36 (KHTML, like Gecko) Chrome/92.0.4515.107 Safari/537.36",Macintosh,Chrome,92.0.4515.107,"OS X",10_15_7,5f461dd6c139dd6b46c7596cbd57cd79
190,1,"""","""","""","""","""",sampler,216,171971,0.0-6.0-210.0,"""","""","""","""","""","""","""","""","""","""","""","""","2021-08-09 16:18:49",71.230.126.129,"Mozilla/5.0 (Macintosh; Intel Mac OS X 10_15_7) AppleWebKit/537.36 (KHTML, like Gecko) Chrome/92.0.4515.107 Safari/537.36",Macintosh,Chrome,92.0.4515.107,"OS X",10_15_7,5f461dd6c139dd6b46c7596cbd57cd79
190,1,"""","""","""","""","""",sampler,217,171971,0.0-6.0-211.0,"""","""","""","""","""","""","""","""","""","""","""","""","2021-08-09 16:18:49",71.230.126.129,"Mozilla/5.0 (Macintosh; Intel Mac OS X 10_15_7) AppleWebKit/537.36 (KHTML, like Gecko) Chrome/92.0.4515.107 Safari/537.36",Macintosh,Chrome,92.0.4515.107,"OS X",10_15_7,5f461dd6c139dd6b46c7596cbd57cd79
190,1,"""","""","""","""","""",sampler,218,171972,0.0-6.0-212.0,"""","""","""","""","""","""","""","""","""","""","""","""","2021-08-09 16:18:49",71.230.126.129,"Mozilla/5.0 (Macintosh; Intel Mac OS X 10_15_7) AppleWebKit/537.36 (KHTML, like Gecko) Chrome/92.0.4515.107 Safari/537.36",Macintosh,Chrome,92.0.4515.107,"OS X",10_15_7,5f461dd6c139dd6b46c7596cbd57cd79
190,1,"""","""","""","""","""",sampler,219,171972,0.0-6.0-213.0,"""","""","""","""","""","""","""","""","""","""","""","""","2021-08-09 16:18:49",71.230.126.129,"Mozilla/5.0 (Macintosh; Intel Mac OS X 10_15_7) AppleWebKit/537.36 (KHTML, like Gecko) Chrome/92.0.4515.107 Safari/537.36",Macintosh,Chrome,92.0.4515.107,"OS X",10_15_7,5f461dd6c139dd6b46c7596cbd57cd79
190,1,"""","""","""","""","""",sampler,220,171972,0.0-6.0-214.0,"""","""","""","""","""","""","""","""","""","""","""","""","2021-08-09 16:18:49",71.230.126.129,"Mozilla/5.0 (Macintosh; Intel Mac OS X 10_15_7) AppleWebKit/537.36 (KHTML, like Gecko) Chrome/92.0.4515.107 Safari/537.36",Macintosh,Chrome,92.0.4515.107,"OS X",10_15_7,5f461dd6c139dd6b46c7596cbd57cd79
190,1,"""","""","""","""","""",sampler,221,171972,0.0-6.0-215.0,"""","""","""","""","""","""","""","""","""","""","""","""","2021-08-09 16:18:49",71.230.126.129,"Mozilla/5.0 (Macintosh; Intel Mac OS X 10_15_7) AppleWebKit/537.36 (KHTML, like Gecko) Chrome/92.0.4515.107 Safari/537.36",Macintosh,Chrome,92.0.4515.107,"OS X",10_15_7,5f461dd6c139dd6b46c7596cbd57cd79
190,1,"""","""","""","""","""",sampler,222,171972,0.0-6.0-216.0,"""","""","""","""","""","""","""","""","""","""","""","""","2021-08-09 16:18:49",71.230.126.129,"Mozilla/5.0 (Macintosh; Intel Mac OS X 10_15_7) AppleWebKit/537.36 (KHTML, like Gecko) Chrome/92.0.4515.107 Safari/537.36",Macintosh,Chrome,92.0.4515.107,"OS X",10_15_7,5f461dd6c139dd6b46c7596cbd57cd79
190,1,"""","""","""","""","""",sampler,223,171972,0.0-6.0-217.0,"""","""","""","""","""","""","""","""","""","""","""","""","2021-08-09 16:18:49",71.230.126.129,"Mozilla/5.0 (Macintosh; Intel Mac OS X 10_15_7) AppleWebKit/537.36 (KHTML, like Gecko) Chrome/92.0.4515.107 Safari/537.36",Macintosh,Chrome,92.0.4515.107,"OS X",10_15_7,5f461dd6c139dd6b46c7596cbd57cd79
190,1,"""","""","""","""","""",sampler,224,171972,0.0-6.0-218.0,"""","""","""","""","""","""","""","""","""","""","""","""","2021-08-09 16:18:49",71.230.126.129,"Mozilla/5.0 (Macintosh; Intel Mac OS X 10_15_7) AppleWebKit/537.36 (KHTML, like Gecko) Chrome/92.0.4515.107 Safari/537.36",Macintosh,Chrome,92.0.4515.107,"OS X",10_15_7,5f461dd6c139dd6b46c7596cbd57cd79
190,1,"""","""","""","""","""",sampler,225,171972,0.0-6.0-219.0,"""","""","""","""","""","""","""","""","""","""","""","""","2021-08-09 16:18:49",71.230.126.129,"Mozilla/5.0 (Macintosh; Intel Mac OS X 10_15_7) AppleWebKit/537.36 (KHTML, like Gecko) Chrome/92.0.4515.107 Safari/537.36",Macintosh,Chrome,92.0.4515.107,"OS X",10_15_7,5f461dd6c139dd6b46c7596cbd57cd79
190,1,"""","""","""","""","""",sampler,226,171972,0.0-6.0-220.0,"""","""","""","""","""","""","""","""","""","""","""","""","2021-08-09 16:18:49",71.230.126.129,"Mozilla/5.0 (Macintosh; Intel Mac OS X 10_15_7) AppleWebKit/537.36 (KHTML, like Gecko) Chrome/92.0.4515.107 Safari/537.36",Macintosh,Chrome,92.0.4515.107,"OS X",10_15_7,5f461dd6c139dd6b46c7596cbd57cd79
190,1,"""","""","""","""","""",sampler,227,171973,0.0-6.0-221.0,"""","""","""","""","""","""","""","""","""","""","""","""","2021-08-09 16:18:49",71.230.126.129,"Mozilla/5.0 (Macintosh; Intel Mac OS X 10_15_7) AppleWebKit/537.36 (KHTML, like Gecko) Chrome/92.0.4515.107 Safari/537.36",Macintosh,Chrome,92.0.4515.107,"OS X",10_15_7,5f461dd6c139dd6b46c7596cbd57cd79
190,1,"""","""","""","""","""",sampler,228,171973,0.0-6.0-222.0,"""","""","""","""","""","""","""","""","""","""","""","""","2021-08-09 16:18:49",71.230.126.129,"Mozilla/5.0 (Macintosh; Intel Mac OS X 10_15_7) AppleWebKit/537.36 (KHTML, like Gecko) Chrome/92.0.4515.107 Safari/537.36",Macintosh,Chrome,92.0.4515.107,"OS X",10_15_7,5f461dd6c139dd6b46c7596cbd57cd79
190,1,"""","""","""","""","""",sampler,229,171973,0.0-6.0-223.0,"""","""","""","""","""","""","""","""","""","""","""","""","2021-08-09 16:18:49",71.230.126.129,"Mozilla/5.0 (Macintosh; Intel Mac OS X 10_15_7) AppleWebKit/537.36 (KHTML, like Gecko) Chrome/92.0.4515.107 Safari/537.36",Macintosh,Chrome,92.0.4515.107,"OS X",10_15_7,5f461dd6c139dd6b46c7596cbd57cd79
190,1,"""","""","""","""","""",sampler,230,171973,0.0-6.0-224.0,"""","""","""","""","""","""","""","""","""","""","""","""","2021-08-09 16:18:49",71.230.126.129,"Mozilla/5.0 (Macintosh; Intel Mac OS X 10_15_7) AppleWebKit/537.36 (KHTML, like Gecko) Chrome/92.0.4515.107 Safari/537.36",Macintosh,Chrome,92.0.4515.107,"OS X",10_15_7,5f461dd6c139dd6b46c7596cbd57cd79
190,1,"""","""","""","""","""",sampler,231,171973,0.0-6.0-225.0,"""","""","""","""","""","""","""","""","""","""","""","""","2021-08-09 16:18:49",71.230.126.129,"Mozilla/5.0 (Macintosh; Intel Mac OS X 10_15_7) AppleWebKit/537.36 (KHTML, like Gecko) Chrome/92.0.4515.107 Safari/537.36",Macintosh,Chrome,92.0.4515.107,"OS X",10_15_7,5f461dd6c139dd6b46c7596cbd57cd79
190,1,"""","""","""","""","""",sampler,232,171973,0.0-6.0-226.0,"""","""","""","""","""","""","""","""","""","""","""","""","2021-08-09 16:18:49",71.230.126.129,"Mozilla/5.0 (Macintosh; Intel Mac OS X 10_15_7) AppleWebKit/537.36 (KHTML, like Gecko) Chrome/92.0.4515.107 Safari/537.36",Macintosh,Chrome,92.0.4515.107,"OS X",10_15_7,5f461dd6c139dd6b46c7596cbd57cd79
190,1,"""","""","""","""","""",sampler,233,171973,0.0-6.0-227.0,"""","""","""","""","""","""","""","""","""","""","""","""","2021-08-09 16:18:49",71.230.126.129,"Mozilla/5.0 (Macintosh; Intel Mac OS X 10_15_7) AppleWebKit/537.36 (KHTML, like Gecko) Chrome/92.0.4515.107 Safari/537.36",Macintosh,Chrome,92.0.4515.107,"OS X",10_15_7,5f461dd6c139dd6b46c7596cbd57cd79
190,1,"""","""","""","""","""",sampler,234,171973,0.0-6.0-228.0,"""","""","""","""","""","""","""","""","""","""","""","""","2021-08-09 16:18:49",71.230.126.129,"Mozilla/5.0 (Macintosh; Intel Mac OS X 10_15_7) AppleWebKit/537.36 (KHTML, like Gecko) Chrome/92.0.4515.107 Safari/537.36",Macintosh,Chrome,92.0.4515.107,"OS X",10_15_7,5f461dd6c139dd6b46c7596cbd57cd79
190,1,"""","""","""","""","""",sampler,235,171973,0.0-6.0-229.0,"""","""","""","""","""","""","""","""","""","""","""","""","2021-08-09 16:18:49",71.230.126.129,"Mozilla/5.0 (Macintosh; Intel Mac OS X 10_15_7) AppleWebKit/537.36 (KHTML, like Gecko) Chrome/92.0.4515.107 Safari/537.36",Macintosh,Chrome,92.0.4515.107,"OS X",10_15_7,5f461dd6c139dd6b46c7596cbd57cd79
190,1,"""","""","""","""","""",sampler,236,171974,0.0-6.0-230.0,"""","""","""","""","""","""","""","""","""","""","""","""","2021-08-09 16:18:49",71.230.126.129,"Mozilla/5.0 (Macintosh; Intel Mac OS X 10_15_7) AppleWebKit/537.36 (KHTML, like Gecko) Chrome/92.0.4515.107 Safari/537.36",Macintosh,Chrome,92.0.4515.107,"OS X",10_15_7,5f461dd6c139dd6b46c7596cbd57cd79
190,1,"""","""","""","""","""",sampler,237,171974,0.0-6.0-231.0,"""","""","""","""","""","""","""","""","""","""","""","""","2021-08-09 16:18:49",71.230.126.129,"Mozilla/5.0 (Macintosh; Intel Mac OS X 10_15_7) AppleWebKit/537.36 (KHTML, like Gecko) Chrome/92.0.4515.107 Safari/537.36",Macintosh,Chrome,92.0.4515.107,"OS X",10_15_7,5f461dd6c139dd6b46c7596cbd57cd79
190,1,"""","""","""","""","""",sampler,238,171974,0.0-6.0-232.0,"""","""","""","""","""","""","""","""","""","""","""","""","2021-08-09 16:18:49",71.230.126.129,"Mozilla/5.0 (Macintosh; Intel Mac OS X 10_15_7) AppleWebKit/537.36 (KHTML, like Gecko) Chrome/92.0.4515.107 Safari/537.36",Macintosh,Chrome,92.0.4515.107,"OS X",10_15_7,5f461dd6c139dd6b46c7596cbd57cd79
190,1,"""","""","""","""","""",sampler,239,171974,0.0-6.0-233.0,"""","""","""","""","""","""","""","""","""","""","""","""","2021-08-09 16:18:49",71.230.126.129,"Mozilla/5.0 (Macintosh; Intel Mac OS X 10_15_7) AppleWebKit/537.36 (KHTML, like Gecko) Chrome/92.0.4515.107 Safari/537.36",Macintosh,Chrome,92.0.4515.107,"OS X",10_15_7,5f461dd6c139dd6b46c7596cbd57cd79
190,1,"""","""","""","""","""",sampler,240,171974,0.0-6.0-234.0,"""","""","""","""","""","""","""","""","""","""","""","""","2021-08-09 16:18:49",71.230.126.129,"Mozilla/5.0 (Macintosh; Intel Mac OS X 10_15_7) AppleWebKit/537.36 (KHTML, like Gecko) Chrome/92.0.4515.107 Safari/537.36",Macintosh,Chrome,92.0.4515.107,"OS X",10_15_7,5f461dd6c139dd6b46c7596cbd57cd79
190,1,"""","""","""","""","""",sampler,241,171974,0.0-6.0-235.0,"""","""","""","""","""","""","""","""","""","""","""","""","2021-08-09 16:18:49",71.230.126.129,"Mozilla/5.0 (Macintosh; Intel Mac OS X 10_15_7) AppleWebKit/537.36 (KHTML, like Gecko) Chrome/92.0.4515.107 Safari/537.36",Macintosh,Chrome,92.0.4515.107,"OS X",10_15_7,5f461dd6c139dd6b46c7596cbd57cd79
190,1,"""","""","""","""","""",sampler,242,171974,0.0-6.0-236.0,"""","""","""","""","""","""","""","""","""","""","""","""","2021-08-09 16:18:49",71.230.126.129,"Mozilla/5.0 (Macintosh; Intel Mac OS X 10_15_7) AppleWebKit/537.36 (KHTML, like Gecko) Chrome/92.0.4515.107 Safari/537.36",Macintosh,Chrome,92.0.4515.107,"OS X",10_15_7,5f461dd6c139dd6b46c7596cbd57cd79
190,1,"""","""","""","""","""",sampler,243,171974,0.0-6.0-237.0,"""","""","""","""","""","""","""","""","""","""","""","""","2021-08-09 16:18:49",71.230.126.129,"Mozilla/5.0 (Macintosh; Intel Mac OS X 10_15_7) AppleWebKit/537.36 (KHTML, like Gecko) Chrome/92.0.4515.107 Safari/537.36",Macintosh,Chrome,92.0.4515.107,"OS X",10_15_7,5f461dd6c139dd6b46c7596cbd57cd79
190,1,"""","""","""","""","""",sampler,244,171974,0.0-6.0-238.0,"""","""","""","""","""","""","""","""","""","""","""","""","2021-08-09 16:18:49",71.230.126.129,"Mozilla/5.0 (Macintosh; Intel Mac OS X 10_15_7) AppleWebKit/537.36 (KHTML, like Gecko) Chrome/92.0.4515.107 Safari/537.36",Macintosh,Chrome,92.0.4515.107,"OS X",10_15_7,5f461dd6c139dd6b46c7596cbd57cd79
190,1,"""","""","""","""","""",sampler,245,171975,0.0-6.0-239.0,"""","""","""","""","""","""","""","""","""","""","""","""","2021-08-09 16:18:49",71.230.126.129,"Mozilla/5.0 (Macintosh; Intel Mac OS X 10_15_7) AppleWebKit/537.36 (KHTML, like Gecko) Chrome/92.0.4515.107 Safari/537.36",Macintosh,Chrome,92.0.4515.107,"OS X",10_15_7,5f461dd6c139dd6b46c7596cbd57cd79
190,1,"""","""","""","""","""",sampler,246,171975,0.0-6.0-240.0,"""","""","""","""","""","""","""","""","""","""","""","""","2021-08-09 16:18:49",71.230.126.129,"Mozilla/5.0 (Macintosh; Intel Mac OS X 10_15_7) AppleWebKit/537.36 (KHTML, like Gecko) Chrome/92.0.4515.107 Safari/537.36",Macintosh,Chrome,92.0.4515.107,"OS X",10_15_7,5f461dd6c139dd6b46c7596cbd57cd79
190,1,"""","""","""","""","""",sampler,247,171975,0.0-6.0-241.0,"""","""","""","""","""","""","""","""","""","""","""","""","2021-08-09 16:18:49",71.230.126.129,"Mozilla/5.0 (Macintosh; Intel Mac OS X 10_15_7) AppleWebKit/537.36 (KHTML, like Gecko) Chrome/92.0.4515.107 Safari/537.36",Macintosh,Chrome,92.0.4515.107,"OS X",10_15_7,5f461dd6c139dd6b46c7596cbd57cd79
190,1,"""","""","""","""","""",sampler,248,171975,0.0-6.0-242.0,"""","""","""","""","""","""","""","""","""","""","""","""","2021-08-09 16:18:49",71.230.126.129,"Mozilla/5.0 (Macintosh; Intel Mac OS X 10_15_7) AppleWebKit/537.36 (KHTML, like Gecko) Chrome/92.0.4515.107 Safari/537.36",Macintosh,Chrome,92.0.4515.107,"OS X",10_15_7,5f461dd6c139dd6b46c7596cbd57cd79
190,1,"""","""","""","""","""",sampler,249,171975,0.0-6.0-243.0,"""","""","""","""","""","""","""","""","""","""","""","""","2021-08-09 16:18:49",71.230.126.129,"Mozilla/5.0 (Macintosh; Intel Mac OS X 10_15_7) AppleWebKit/537.36 (KHTML, like Gecko) Chrome/92.0.4515.107 Safari/537.36",Macintosh,Chrome,92.0.4515.107,"OS X",10_15_7,5f461dd6c139dd6b46c7596cbd57cd79
190,1,"""","""","""","""","""",sampler,250,171975,0.0-6.0-244.0,"""","""","""","""","""","""","""","""","""","""","""","""","2021-08-09 16:18:49",71.230.126.129,"Mozilla/5.0 (Macintosh; Intel Mac OS X 10_15_7) AppleWebKit/537.36 (KHTML, like Gecko) Chrome/92.0.4515.107 Safari/537.36",Macintosh,Chrome,92.0.4515.107,"OS X",10_15_7,5f461dd6c139dd6b46c7596cbd57cd79
190,1,"""","""","""","""","""",sampler,251,171975,0.0-6.0-245.0,"""","""","""","""","""","""","""","""","""","""","""","""","2021-08-09 16:18:49",71.230.126.129,"Mozilla/5.0 (Macintosh; Intel Mac OS X 10_15_7) AppleWebKit/537.36 (KHTML, like Gecko) Chrome/92.0.4515.107 Safari/537.36",Macintosh,Chrome,92.0.4515.107,"OS X",10_15_7,5f461dd6c139dd6b46c7596cbd57cd79
190,1,"""","""","""","""","""",sampler,252,171975,0.0-6.0-246.0,"""","""","""","""","""","""","""","""","""","""","""","""","2021-08-09 16:18:49",71.230.126.129,"Mozilla/5.0 (Macintosh; Intel Mac OS X 10_15_7) AppleWebKit/537.36 (KHTML, like Gecko) Chrome/92.0.4515.107 Safari/537.36",Macintosh,Chrome,92.0.4515.107,"OS X",10_15_7,5f461dd6c139dd6b46c7596cbd57cd79
190,1,"""","""","""","""","""",sampler,253,171975,0.0-6.0-247.0,"""","""","""","""","""","""","""","""","""","""","""","""","2021-08-09 16:18:49",71.230.126.129,"Mozilla/5.0 (Macintosh; Intel Mac OS X 10_15_7) AppleWebKit/537.36 (KHTML, like Gecko) Chrome/92.0.4515.107 Safari/537.36",Macintosh,Chrome,92.0.4515.107,"OS X",10_15_7,5f461dd6c139dd6b46c7596cbd57cd79
190,1,"""","""","""","""","""",sampler,254,171976,0.0-6.0-248.0,"""","""","""","""","""","""","""","""","""","""","""","""","2021-08-09 16:18:49",71.230.126.129,"Mozilla/5.0 (Macintosh; Intel Mac OS X 10_15_7) AppleWebKit/537.36 (KHTML, like Gecko) Chrome/92.0.4515.107 Safari/537.36",Macintosh,Chrome,92.0.4515.107,"OS X",10_15_7,5f461dd6c139dd6b46c7596cbd57cd79
190,1,"""","""","""","""","""",sampler,255,171976,0.0-6.0-249.0,"""","""","""","""","""","""","""","""","""","""","""","""","2021-08-09 16:18:49",71.230.126.129,"Mozilla/5.0 (Macintosh; Intel Mac OS X 10_15_7) AppleWebKit/537.36 (KHTML, like Gecko) Chrome/92.0.4515.107 Safari/537.36",Macintosh,Chrome,92.0.4515.107,"OS X",10_15_7,5f461dd6c139dd6b46c7596cbd57cd79
190,1,"""","""","""","""","""",sampler,256,171976,0.0-6.0-250.0,"""","""","""","""","""","""","""","""","""","""","""","""","2021-08-09 16:18:49",71.230.126.129,"Mozilla/5.0 (Macintosh; Intel Mac OS X 10_15_7) AppleWebKit/537.36 (KHTML, like Gecko) Chrome/92.0.4515.107 Safari/537.36",Macintosh,Chrome,92.0.4515.107,"OS X",10_15_7,5f461dd6c139dd6b46c7596cbd57cd79
190,1,"""","""","""","""","""",sampler,257,171976,0.0-6.0-251.0,"""","""","""","""","""","""","""","""","""","""","""","""","2021-08-09 16:18:49",71.230.126.129,"Mozilla/5.0 (Macintosh; Intel Mac OS X 10_15_7) AppleWebKit/537.36 (KHTML, like Gecko) Chrome/92.0.4515.107 Safari/537.36",Macintosh,Chrome,92.0.4515.107,"OS X",10_15_7,5f461dd6c139dd6b46c7596cbd57cd79
190,1,"""","""","""","""","""",sampler,258,171976,0.0-6.0-252.0,"""","""","""","""","""","""","""","""","""","""","""","""","2021-08-09 16:18:49",71.230.126.129,"Mozilla/5.0 (Macintosh; Intel Mac OS X 10_15_7) AppleWebKit/537.36 (KHTML, like Gecko) Chrome/92.0.4515.107 Safari/537.36",Macintosh,Chrome,92.0.4515.107,"OS X",10_15_7,5f461dd6c139dd6b46c7596cbd57cd79
190,1,"""","""","""","""","""",sampler,259,171976,0.0-6.0-253.0,"""","""","""","""","""","""","""","""","""","""","""","""","2021-08-09 16:18:49",71.230.126.129,"Mozilla/5.0 (Macintosh; Intel Mac OS X 10_15_7) AppleWebKit/537.36 (KHTML, like Gecko) Chrome/92.0.4515.107 Safari/537.36",Macintosh,Chrome,92.0.4515.107,"OS X",10_15_7,5f461dd6c139dd6b46c7596cbd57cd79
190,1,"""","""","""","""","""",sampler,260,171976,0.0-6.0-254.0,"""","""","""","""","""","""","""","""","""","""","""","""","2021-08-09 16:18:49",71.230.126.129,"Mozilla/5.0 (Macintosh; Intel Mac OS X 10_15_7) AppleWebKit/537.36 (KHTML, like Gecko) Chrome/92.0.4515.107 Safari/537.36",Macintosh,Chrome,92.0.4515.107,"OS X",10_15_7,5f461dd6c139dd6b46c7596cbd57cd79
190,1,"""","""","""","""","""",sampler,261,171976,0.0-6.0-255.0,"""","""","""","""","""","""","""","""","""","""","""","""","2021-08-09 16:18:49",71.230.126.129,"Mozilla/5.0 (Macintosh; Intel Mac OS X 10_15_7) AppleWebKit/537.36 (KHTML, like Gecko) Chrome/92.0.4515.107 Safari/537.36",Macintosh,Chrome,92.0.4515.107,"OS X",10_15_7,5f461dd6c139dd6b46c7596cbd57cd79
190,1,"""","""","""","""","""",sampler,262,171976,0.0-6.0-256.0,"""","""","""","""","""","""","""","""","""","""","""","""","2021-08-09 16:18:49",71.230.126.129,"Mozilla/5.0 (Macintosh; Intel Mac OS X 10_15_7) AppleWebKit/537.36 (KHTML, like Gecko) Chrome/92.0.4515.107 Safari/537.36",Macintosh,Chrome,92.0.4515.107,"OS X",10_15_7,5f461dd6c139dd6b46c7596cbd57cd79
190,1,"""","""","""","""","""",sampler,263,171977,0.0-6.0-257.0,"""","""","""","""","""","""","""","""","""","""","""","""","2021-08-09 16:18:49",71.230.126.129,"Mozilla/5.0 (Macintosh; Intel Mac OS X 10_15_7) AppleWebKit/537.36 (KHTML, like Gecko) Chrome/92.0.4515.107 Safari/537.36",Macintosh,Chrome,92.0.4515.107,"OS X",10_15_7,5f461dd6c139dd6b46c7596cbd57cd79
190,1,"""","""","""","""","""",sampler,264,171977,0.0-6.0-258.0,"""","""","""","""","""","""","""","""","""","""","""","""","2021-08-09 16:18:49",71.230.126.129,"Mozilla/5.0 (Macintosh; Intel Mac OS X 10_15_7) AppleWebKit/537.36 (KHTML, like Gecko) Chrome/92.0.4515.107 Safari/537.36",Macintosh,Chrome,92.0.4515.107,"OS X",10_15_7,5f461dd6c139dd6b46c7596cbd57cd79
190,1,"""","""","""","""","""",sampler,265,171977,0.0-6.0-259.0,"""","""","""","""","""","""","""","""","""","""","""","""","2021-08-09 16:18:49",71.230.126.129,"Mozilla/5.0 (Macintosh; Intel Mac OS X 10_15_7) AppleWebKit/537.36 (KHTML, like Gecko) Chrome/92.0.4515.107 Safari/537.36",Macintosh,Chrome,92.0.4515.107,"OS X",10_15_7,5f461dd6c139dd6b46c7596cbd57cd79
190,1,"""","""","""","""","""",sampler,266,171977,0.0-6.0-260.0,"""","""","""","""","""","""","""","""","""","""","""","""","2021-08-09 16:18:49",71.230.126.129,"Mozilla/5.0 (Macintosh; Intel Mac OS X 10_15_7) AppleWebKit/537.36 (KHTML, like Gecko) Chrome/92.0.4515.107 Safari/537.36",Macintosh,Chrome,92.0.4515.107,"OS X",10_15_7,5f461dd6c139dd6b46c7596cbd57cd79
190,1,"""","""","""","""","""",sampler,267,171977,0.0-6.0-261.0,"""","""","""","""","""","""","""","""","""","""","""","""","2021-08-09 16:18:49",71.230.126.129,"Mozilla/5.0 (Macintosh; Intel Mac OS X 10_15_7) AppleWebKit/537.36 (KHTML, like Gecko) Chrome/92.0.4515.107 Safari/537.36",Macintosh,Chrome,92.0.4515.107,"OS X",10_15_7,5f461dd6c139dd6b46c7596cbd57cd79
190,1,"""","""","""","""","""",sampler,268,171977,0.0-6.0-262.0,"""","""","""","""","""","""","""","""","""","""","""","""","2021-08-09 16:18:49",71.230.126.129,"Mozilla/5.0 (Macintosh; Intel Mac OS X 10_15_7) AppleWebKit/537.36 (KHTML, like Gecko) Chrome/92.0.4515.107 Safari/537.36",Macintosh,Chrome,92.0.4515.107,"OS X",10_15_7,5f461dd6c139dd6b46c7596cbd57cd79
190,1,"""","""","""","""","""",sampler,269,171977,0.0-6.0-263.0,"""","""","""","""","""","""","""","""","""","""","""","""","2021-08-09 16:18:49",71.230.126.129,"Mozilla/5.0 (Macintosh; Intel Mac OS X 10_15_7) AppleWebKit/537.36 (KHTML, like Gecko) Chrome/92.0.4515.107 Safari/537.36",Macintosh,Chrome,92.0.4515.107,"OS X",10_15_7,5f461dd6c139dd6b46c7596cbd57cd79
190,1,"""","""","""","""","""",sampler,270,171977,0.0-6.0-264.0,"""","""","""","""","""","""","""","""","""","""","""","""","2021-08-09 16:18:49",71.230.126.129,"Mozilla/5.0 (Macintosh; Intel Mac OS X 10_15_7) AppleWebKit/537.36 (KHTML, like Gecko) Chrome/92.0.4515.107 Safari/537.36",Macintosh,Chrome,92.0.4515.107,"OS X",10_15_7,5f461dd6c139dd6b46c7596cbd57cd79
190,1,"""","""","""","""","""",sampler,271,171977,0.0-6.0-265.0,"""","""","""","""","""","""","""","""","""","""","""","""","2021-08-09 16:18:49",71.230.126.129,"Mozilla/5.0 (Macintosh; Intel Mac OS X 10_15_7) AppleWebKit/537.36 (KHTML, like Gecko) Chrome/92.0.4515.107 Safari/537.36",Macintosh,Chrome,92.0.4515.107,"OS X",10_15_7,5f461dd6c139dd6b46c7596cbd57cd79
