run_id,condition,success,timeout,failed_images,failed_audio,failed_video,trial_type,trial_index,time_elapsed,internal_node_id,rt,stimulus,key_press,responses,view_history,correct,image_click,points,sd,points2,total_earn,button_pressed,recorded_at,ip,user_agent,device,browser,browser_version,platform,platform_version,source_code_version
186,1,true,false,"""","""","""",preload,0,807,0.0-0.0,"""","""","""","""","""","""","""","""","""","""","""","""","2021-08-09 16:16:06",75.33.85.25,"Mozilla/5.0 (Macintosh; Intel Mac OS X 10_14_6) AppleWebKit/537.36 (KHTML, like Gecko) Chrome/92.0.4515.131 Safari/537.36",Macintosh,Chrome,92.0.4515.131,"OS X",10_14_6,5f461dd6c139dd6b46c7596cbd57cd79
186,1,"""","""","""","""","""",html-keyboard-response,1,2130,0.0-1.0,1319,"<font size=15>Welcome to our experiment!</font><br><br><br><i> Press <b>space bar</b> to begin.</i>",32,"""","""","""","""","""","""","""","""","""","2021-08-09 16:16:06",75.33.85.25,"Mozilla/5.0 (Macintosh; Intel Mac OS X 10_14_6) AppleWebKit/537.36 (KHTML, like Gecko) Chrome/92.0.4515.131 Safari/537.36",Macintosh,Chrome,92.0.4515.131,"OS X",10_14_6,5f461dd6c139dd6b46c7596cbd57cd79
186,1,"""","""","""","""","""",survey-multi-choice,2,11061,0.0-2.0,8925,"""","""","{""Q0"":""Yes"",""Q1"":""Yes"",""Q2"":""Yes"",""Q3"":""Yes""}","""","""","""","""","""","""","""","""","2021-08-09 16:16:06",75.33.85.25,"Mozilla/5.0 (Macintosh; Intel Mac OS X 10_14_6) AppleWebKit/537.36 (KHTML, like Gecko) Chrome/92.0.4515.131 Safari/537.36",Macintosh,Chrome,92.0.4515.131,"OS X",10_14_6,5f461dd6c139dd6b46c7596cbd57cd79
186,1,"""","""","""","""","""",survey-html-form,3,25294,0.0-3.0,14230.199999988079,"""","""","{""gender"":""female"",""age"":""23"",""hand"":""right"",""mail"":""611150d702250a12140ff4c2""}","""","""","""","""","""","""","""","""","2021-08-09 16:16:06",75.33.85.25,"Mozilla/5.0 (Macintosh; Intel Mac OS X 10_14_6) AppleWebKit/537.36 (KHTML, like Gecko) Chrome/92.0.4515.131 Safari/537.36",Macintosh,Chrome,92.0.4515.131,"OS X",10_14_6,5f461dd6c139dd6b46c7596cbd57cd79
186,1,true,"""","""","""","""",fullscreen,4,28178,0.0-4.0,"""","""","""","""","""","""","""","""","""","""","""","""","2021-08-09 16:16:06",75.33.85.25,"Mozilla/5.0 (Macintosh; Intel Mac OS X 10_14_6) AppleWebKit/537.36 (KHTML, like Gecko) Chrome/92.0.4515.131 Safari/537.36",Macintosh,Chrome,92.0.4515.131,"OS X",10_14_6,5f461dd6c139dd6b46c7596cbd57cd79
186,1,"""","""","""","""","""",multikey-instructions,5,178691,0.0-5.0,150511,"""","""","""","[{""page_index"":0,""viewing_time"":32302},{""page_index"":1,""viewing_time"":10204},{""page_index"":2,""viewing_time"":7038},{""page_index"":3,""viewing_time"":12083},{""page_index"":4,""viewing_time"":11649},{""page_index"":5,""viewing_time"":10388},{""page_index"":6,""viewing_time"":5569},{""page_index"":7,""viewing_time"":9394},{""page_index"":8,""viewing_time"":26574},{""page_index"":9,""viewing_time"":9206},{""page_index"":10,""viewing_time"":4332},{""page_index"":11,""viewing_time"":11772}]","""","""","""","""","""","""","""","2021-08-09 16:16:06",75.33.85.25,"Mozilla/5.0 (Macintosh; Intel Mac OS X 10_14_6) AppleWebKit/537.36 (KHTML, like Gecko) Chrome/92.0.4515.131 Safari/537.36",Macintosh,Chrome,92.0.4515.131,"OS X",10_14_6,5f461dd6c139dd6b46c7596cbd57cd79
186,1,"""","""","""","""","""",sampler,6,198377,0.0-6.0-0.0,19283,img/Cyan.png,"""","""","""",false,-1,20.586968238458994,10,"""","""","""","2021-08-09 16:16:06",75.33.85.25,"Mozilla/5.0 (Macintosh; Intel Mac OS X 10_14_6) AppleWebKit/537.36 (KHTML, like Gecko) Chrome/92.0.4515.131 Safari/537.36",Macintosh,Chrome,92.0.4515.131,"OS X",10_14_6,5f461dd6c139dd6b46c7596cbd57cd79
186,1,"""","""","""","""","""",sampler,7,198379,0.0-6.0-1.0,"""","""","""","""","""","""","""","""","""","""","""","""","2021-08-09 16:16:06",75.33.85.25,"Mozilla/5.0 (Macintosh; Intel Mac OS X 10_14_6) AppleWebKit/537.36 (KHTML, like Gecko) Chrome/92.0.4515.131 Safari/537.36",Macintosh,Chrome,92.0.4515.131,"OS X",10_14_6,5f461dd6c139dd6b46c7596cbd57cd79
186,1,"""","""","""","""","""",sampler,8,198380,0.0-6.0-2.0,"""","""","""","""","""","""","""","""","""","""","""","""","2021-08-09 16:16:06",75.33.85.25,"Mozilla/5.0 (Macintosh; Intel Mac OS X 10_14_6) AppleWebKit/537.36 (KHTML, like Gecko) Chrome/92.0.4515.131 Safari/537.36",Macintosh,Chrome,92.0.4515.131,"OS X",10_14_6,5f461dd6c139dd6b46c7596cbd57cd79
186,1,"""","""","""","""","""",sampler,9,198380,0.0-6.0-3.0,"""","""","""","""","""","""","""","""","""","""","""","""","2021-08-09 16:16:06",75.33.85.25,"Mozilla/5.0 (Macintosh; Intel Mac OS X 10_14_6) AppleWebKit/537.36 (KHTML, like Gecko) Chrome/92.0.4515.131 Safari/537.36",Macintosh,Chrome,92.0.4515.131,"OS X",10_14_6,5f461dd6c139dd6b46c7596cbd57cd79
186,1,"""","""","""","""","""",sampler,10,198380,0.0-6.0-4.0,"""","""","""","""","""","""","""","""","""","""","""","""","2021-08-09 16:16:06",75.33.85.25,"Mozilla/5.0 (Macintosh; Intel Mac OS X 10_14_6) AppleWebKit/537.36 (KHTML, like Gecko) Chrome/92.0.4515.131 Safari/537.36",Macintosh,Chrome,92.0.4515.131,"OS X",10_14_6,5f461dd6c139dd6b46c7596cbd57cd79
186,1,"""","""","""","""","""",sampler,11,198380,0.0-6.0-5.0,"""","""","""","""","""","""","""","""","""","""","""","""","2021-08-09 16:16:06",75.33.85.25,"Mozilla/5.0 (Macintosh; Intel Mac OS X 10_14_6) AppleWebKit/537.36 (KHTML, like Gecko) Chrome/92.0.4515.131 Safari/537.36",Macintosh,Chrome,92.0.4515.131,"OS X",10_14_6,5f461dd6c139dd6b46c7596cbd57cd79
186,1,"""","""","""","""","""",sampler,12,198380,0.0-6.0-6.0,"""","""","""","""","""","""","""","""","""","""","""","""","2021-08-09 16:16:06",75.33.85.25,"Mozilla/5.0 (Macintosh; Intel Mac OS X 10_14_6) AppleWebKit/537.36 (KHTML, like Gecko) Chrome/92.0.4515.131 Safari/537.36",Macintosh,Chrome,92.0.4515.131,"OS X",10_14_6,5f461dd6c139dd6b46c7596cbd57cd79
186,1,"""","""","""","""","""",sampler,13,198380,0.0-6.0-7.0,"""","""","""","""","""","""","""","""","""","""","""","""","2021-08-09 16:16:06",75.33.85.25,"Mozilla/5.0 (Macintosh; Intel Mac OS X 10_14_6) AppleWebKit/537.36 (KHTML, like Gecko) Chrome/92.0.4515.131 Safari/537.36",Macintosh,Chrome,92.0.4515.131,"OS X",10_14_6,5f461dd6c139dd6b46c7596cbd57cd79
186,1,"""","""","""","""","""",sampler,14,198381,0.0-6.0-8.0,"""","""","""","""","""","""","""","""","""","""","""","""","2021-08-09 16:16:06",75.33.85.25,"Mozilla/5.0 (Macintosh; Intel Mac OS X 10_14_6) AppleWebKit/537.36 (KHTML, like Gecko) Chrome/92.0.4515.131 Safari/537.36",Macintosh,Chrome,92.0.4515.131,"OS X",10_14_6,5f461dd6c139dd6b46c7596cbd57cd79
186,1,"""","""","""","""","""",sampler,15,198381,0.0-6.0-9.0,"""","""","""","""","""","""","""","""","""","""","""","""","2021-08-09 16:16:06",75.33.85.25,"Mozilla/5.0 (Macintosh; Intel Mac OS X 10_14_6) AppleWebKit/537.36 (KHTML, like Gecko) Chrome/92.0.4515.131 Safari/537.36",Macintosh,Chrome,92.0.4515.131,"OS X",10_14_6,5f461dd6c139dd6b46c7596cbd57cd79
186,1,"""","""","""","""","""",sampler,16,198381,0.0-6.0-10.0,"""","""","""","""","""","""","""","""","""","""","""","""","2021-08-09 16:16:06",75.33.85.25,"Mozilla/5.0 (Macintosh; Intel Mac OS X 10_14_6) AppleWebKit/537.36 (KHTML, like Gecko) Chrome/92.0.4515.131 Safari/537.36",Macintosh,Chrome,92.0.4515.131,"OS X",10_14_6,5f461dd6c139dd6b46c7596cbd57cd79
186,1,"""","""","""","""","""",sampler,17,198381,0.0-6.0-11.0,"""","""","""","""","""","""","""","""","""","""","""","""","2021-08-09 16:16:06",75.33.85.25,"Mozilla/5.0 (Macintosh; Intel Mac OS X 10_14_6) AppleWebKit/537.36 (KHTML, like Gecko) Chrome/92.0.4515.131 Safari/537.36",Macintosh,Chrome,92.0.4515.131,"OS X",10_14_6,5f461dd6c139dd6b46c7596cbd57cd79
186,1,"""","""","""","""","""",sampler,18,198381,0.0-6.0-12.0,"""","""","""","""","""","""","""","""","""","""","""","""","2021-08-09 16:16:06",75.33.85.25,"Mozilla/5.0 (Macintosh; Intel Mac OS X 10_14_6) AppleWebKit/537.36 (KHTML, like Gecko) Chrome/92.0.4515.131 Safari/537.36",Macintosh,Chrome,92.0.4515.131,"OS X",10_14_6,5f461dd6c139dd6b46c7596cbd57cd79
186,1,"""","""","""","""","""",sampler,19,198381,0.0-6.0-13.0,"""","""","""","""","""","""","""","""","""","""","""","""","2021-08-09 16:16:06",75.33.85.25,"Mozilla/5.0 (Macintosh; Intel Mac OS X 10_14_6) AppleWebKit/537.36 (KHTML, like Gecko) Chrome/92.0.4515.131 Safari/537.36",Macintosh,Chrome,92.0.4515.131,"OS X",10_14_6,5f461dd6c139dd6b46c7596cbd57cd79
186,1,"""","""","""","""","""",sampler,20,198381,0.0-6.0-14.0,"""","""","""","""","""","""","""","""","""","""","""","""","2021-08-09 16:16:06",75.33.85.25,"Mozilla/5.0 (Macintosh; Intel Mac OS X 10_14_6) AppleWebKit/537.36 (KHTML, like Gecko) Chrome/92.0.4515.131 Safari/537.36",Macintosh,Chrome,92.0.4515.131,"OS X",10_14_6,5f461dd6c139dd6b46c7596cbd57cd79
186,1,"""","""","""","""","""",sampler,21,198382,0.0-6.0-15.0,"""","""","""","""","""","""","""","""","""","""","""","""","2021-08-09 16:16:06",75.33.85.25,"Mozilla/5.0 (Macintosh; Intel Mac OS X 10_14_6) AppleWebKit/537.36 (KHTML, like Gecko) Chrome/92.0.4515.131 Safari/537.36",Macintosh,Chrome,92.0.4515.131,"OS X",10_14_6,5f461dd6c139dd6b46c7596cbd57cd79
186,1,"""","""","""","""","""",sampler,22,198382,0.0-6.0-16.0,"""","""","""","""","""","""","""","""","""","""","""","""","2021-08-09 16:16:06",75.33.85.25,"Mozilla/5.0 (Macintosh; Intel Mac OS X 10_14_6) AppleWebKit/537.36 (KHTML, like Gecko) Chrome/92.0.4515.131 Safari/537.36",Macintosh,Chrome,92.0.4515.131,"OS X",10_14_6,5f461dd6c139dd6b46c7596cbd57cd79
186,1,"""","""","""","""","""",sampler,23,198382,0.0-6.0-17.0,"""","""","""","""","""","""","""","""","""","""","""","""","2021-08-09 16:16:06",75.33.85.25,"Mozilla/5.0 (Macintosh; Intel Mac OS X 10_14_6) AppleWebKit/537.36 (KHTML, like Gecko) Chrome/92.0.4515.131 Safari/537.36",Macintosh,Chrome,92.0.4515.131,"OS X",10_14_6,5f461dd6c139dd6b46c7596cbd57cd79
186,1,"""","""","""","""","""",sampler,24,198382,0.0-6.0-18.0,"""","""","""","""","""","""","""","""","""","""","""","""","2021-08-09 16:16:06",75.33.85.25,"Mozilla/5.0 (Macintosh; Intel Mac OS X 10_14_6) AppleWebKit/537.36 (KHTML, like Gecko) Chrome/92.0.4515.131 Safari/537.36",Macintosh,Chrome,92.0.4515.131,"OS X",10_14_6,5f461dd6c139dd6b46c7596cbd57cd79
186,1,"""","""","""","""","""",sampler,25,198382,0.0-6.0-19.0,"""","""","""","""","""","""","""","""","""","""","""","""","2021-08-09 16:16:06",75.33.85.25,"Mozilla/5.0 (Macintosh; Intel Mac OS X 10_14_6) AppleWebKit/537.36 (KHTML, like Gecko) Chrome/92.0.4515.131 Safari/537.36",Macintosh,Chrome,92.0.4515.131,"OS X",10_14_6,5f461dd6c139dd6b46c7596cbd57cd79
186,1,"""","""","""","""","""",sampler,26,198382,0.0-6.0-20.0,"""","""","""","""","""","""","""","""","""","""","""","""","2021-08-09 16:16:06",75.33.85.25,"Mozilla/5.0 (Macintosh; Intel Mac OS X 10_14_6) AppleWebKit/537.36 (KHTML, like Gecko) Chrome/92.0.4515.131 Safari/537.36",Macintosh,Chrome,92.0.4515.131,"OS X",10_14_6,5f461dd6c139dd6b46c7596cbd57cd79
186,1,"""","""","""","""","""",sampler,27,198382,0.0-6.0-21.0,"""","""","""","""","""","""","""","""","""","""","""","""","2021-08-09 16:16:06",75.33.85.25,"Mozilla/5.0 (Macintosh; Intel Mac OS X 10_14_6) AppleWebKit/537.36 (KHTML, like Gecko) Chrome/92.0.4515.131 Safari/537.36",Macintosh,Chrome,92.0.4515.131,"OS X",10_14_6,5f461dd6c139dd6b46c7596cbd57cd79
186,1,"""","""","""","""","""",sampler,28,198383,0.0-6.0-22.0,"""","""","""","""","""","""","""","""","""","""","""","""","2021-08-09 16:16:06",75.33.85.25,"Mozilla/5.0 (Macintosh; Intel Mac OS X 10_14_6) AppleWebKit/537.36 (KHTML, like Gecko) Chrome/92.0.4515.131 Safari/537.36",Macintosh,Chrome,92.0.4515.131,"OS X",10_14_6,5f461dd6c139dd6b46c7596cbd57cd79
186,1,"""","""","""","""","""",sampler,29,198383,0.0-6.0-23.0,"""","""","""","""","""","""","""","""","""","""","""","""","2021-08-09 16:16:06",75.33.85.25,"Mozilla/5.0 (Macintosh; Intel Mac OS X 10_14_6) AppleWebKit/537.36 (KHTML, like Gecko) Chrome/92.0.4515.131 Safari/537.36",Macintosh,Chrome,92.0.4515.131,"OS X",10_14_6,5f461dd6c139dd6b46c7596cbd57cd79
186,1,"""","""","""","""","""",sampler,30,198383,0.0-6.0-24.0,"""","""","""","""","""","""","""","""","""","""","""","""","2021-08-09 16:16:06",75.33.85.25,"Mozilla/5.0 (Macintosh; Intel Mac OS X 10_14_6) AppleWebKit/537.36 (KHTML, like Gecko) Chrome/92.0.4515.131 Safari/537.36",Macintosh,Chrome,92.0.4515.131,"OS X",10_14_6,5f461dd6c139dd6b46c7596cbd57cd79
186,1,"""","""","""","""","""",sampler,31,198383,0.0-6.0-25.0,"""","""","""","""","""","""","""","""","""","""","""","""","2021-08-09 16:16:06",75.33.85.25,"Mozilla/5.0 (Macintosh; Intel Mac OS X 10_14_6) AppleWebKit/537.36 (KHTML, like Gecko) Chrome/92.0.4515.131 Safari/537.36",Macintosh,Chrome,92.0.4515.131,"OS X",10_14_6,5f461dd6c139dd6b46c7596cbd57cd79
186,1,"""","""","""","""","""",sampler,32,198383,0.0-6.0-26.0,"""","""","""","""","""","""","""","""","""","""","""","""","2021-08-09 16:16:06",75.33.85.25,"Mozilla/5.0 (Macintosh; Intel Mac OS X 10_14_6) AppleWebKit/537.36 (KHTML, like Gecko) Chrome/92.0.4515.131 Safari/537.36",Macintosh,Chrome,92.0.4515.131,"OS X",10_14_6,5f461dd6c139dd6b46c7596cbd57cd79
186,1,"""","""","""","""","""",sampler,33,198383,0.0-6.0-27.0,"""","""","""","""","""","""","""","""","""","""","""","""","2021-08-09 16:16:06",75.33.85.25,"Mozilla/5.0 (Macintosh; Intel Mac OS X 10_14_6) AppleWebKit/537.36 (KHTML, like Gecko) Chrome/92.0.4515.131 Safari/537.36",Macintosh,Chrome,92.0.4515.131,"OS X",10_14_6,5f461dd6c139dd6b46c7596cbd57cd79
186,1,"""","""","""","""","""",sampler,34,198383,0.0-6.0-28.0,"""","""","""","""","""","""","""","""","""","""","""","""","2021-08-09 16:16:06",75.33.85.25,"Mozilla/5.0 (Macintosh; Intel Mac OS X 10_14_6) AppleWebKit/537.36 (KHTML, like Gecko) Chrome/92.0.4515.131 Safari/537.36",Macintosh,Chrome,92.0.4515.131,"OS X",10_14_6,5f461dd6c139dd6b46c7596cbd57cd79
186,1,"""","""","""","""","""",sampler,35,198384,0.0-6.0-29.0,"""","""","""","""","""","""","""","""","""","""","""","""","2021-08-09 16:16:06",75.33.85.25,"Mozilla/5.0 (Macintosh; Intel Mac OS X 10_14_6) AppleWebKit/537.36 (KHTML, like Gecko) Chrome/92.0.4515.131 Safari/537.36",Macintosh,Chrome,92.0.4515.131,"OS X",10_14_6,5f461dd6c139dd6b46c7596cbd57cd79
186,1,"""","""","""","""","""",sampler,36,198384,0.0-6.0-30.0,"""","""","""","""","""","""","""","""","""","""","""","""","2021-08-09 16:16:06",75.33.85.25,"Mozilla/5.0 (Macintosh; Intel Mac OS X 10_14_6) AppleWebKit/537.36 (KHTML, like Gecko) Chrome/92.0.4515.131 Safari/537.36",Macintosh,Chrome,92.0.4515.131,"OS X",10_14_6,5f461dd6c139dd6b46c7596cbd57cd79
186,1,"""","""","""","""","""",sampler,37,198384,0.0-6.0-31.0,"""","""","""","""","""","""","""","""","""","""","""","""","2021-08-09 16:16:06",75.33.85.25,"Mozilla/5.0 (Macintosh; Intel Mac OS X 10_14_6) AppleWebKit/537.36 (KHTML, like Gecko) Chrome/92.0.4515.131 Safari/537.36",Macintosh,Chrome,92.0.4515.131,"OS X",10_14_6,5f461dd6c139dd6b46c7596cbd57cd79
186,1,"""","""","""","""","""",sampler,38,198384,0.0-6.0-32.0,"""","""","""","""","""","""","""","""","""","""","""","""","2021-08-09 16:16:06",75.33.85.25,"Mozilla/5.0 (Macintosh; Intel Mac OS X 10_14_6) AppleWebKit/537.36 (KHTML, like Gecko) Chrome/92.0.4515.131 Safari/537.36",Macintosh,Chrome,92.0.4515.131,"OS X",10_14_6,5f461dd6c139dd6b46c7596cbd57cd79
186,1,"""","""","""","""","""",sampler,39,198384,0.0-6.0-33.0,"""","""","""","""","""","""","""","""","""","""","""","""","2021-08-09 16:16:06",75.33.85.25,"Mozilla/5.0 (Macintosh; Intel Mac OS X 10_14_6) AppleWebKit/537.36 (KHTML, like Gecko) Chrome/92.0.4515.131 Safari/537.36",Macintosh,Chrome,92.0.4515.131,"OS X",10_14_6,5f461dd6c139dd6b46c7596cbd57cd79
186,1,"""","""","""","""","""",sampler,40,198384,0.0-6.0-34.0,"""","""","""","""","""","""","""","""","""","""","""","""","2021-08-09 16:16:06",75.33.85.25,"Mozilla/5.0 (Macintosh; Intel Mac OS X 10_14_6) AppleWebKit/537.36 (KHTML, like Gecko) Chrome/92.0.4515.131 Safari/537.36",Macintosh,Chrome,92.0.4515.131,"OS X",10_14_6,5f461dd6c139dd6b46c7596cbd57cd79
186,1,"""","""","""","""","""",sampler,41,198384,0.0-6.0-35.0,"""","""","""","""","""","""","""","""","""","""","""","""","2021-08-09 16:16:06",75.33.85.25,"Mozilla/5.0 (Macintosh; Intel Mac OS X 10_14_6) AppleWebKit/537.36 (KHTML, like Gecko) Chrome/92.0.4515.131 Safari/537.36",Macintosh,Chrome,92.0.4515.131,"OS X",10_14_6,5f461dd6c139dd6b46c7596cbd57cd79
186,1,"""","""","""","""","""",sampler,42,198385,0.0-6.0-36.0,"""","""","""","""","""","""","""","""","""","""","""","""","2021-08-09 16:16:06",75.33.85.25,"Mozilla/5.0 (Macintosh; Intel Mac OS X 10_14_6) AppleWebKit/537.36 (KHTML, like Gecko) Chrome/92.0.4515.131 Safari/537.36",Macintosh,Chrome,92.0.4515.131,"OS X",10_14_6,5f461dd6c139dd6b46c7596cbd57cd79
186,1,"""","""","""","""","""",sampler,43,198385,0.0-6.0-37.0,"""","""","""","""","""","""","""","""","""","""","""","""","2021-08-09 16:16:06",75.33.85.25,"Mozilla/5.0 (Macintosh; Intel Mac OS X 10_14_6) AppleWebKit/537.36 (KHTML, like Gecko) Chrome/92.0.4515.131 Safari/537.36",Macintosh,Chrome,92.0.4515.131,"OS X",10_14_6,5f461dd6c139dd6b46c7596cbd57cd79
186,1,"""","""","""","""","""",sampler,44,198385,0.0-6.0-38.0,"""","""","""","""","""","""","""","""","""","""","""","""","2021-08-09 16:16:06",75.33.85.25,"Mozilla/5.0 (Macintosh; Intel Mac OS X 10_14_6) AppleWebKit/537.36 (KHTML, like Gecko) Chrome/92.0.4515.131 Safari/537.36",Macintosh,Chrome,92.0.4515.131,"OS X",10_14_6,5f461dd6c139dd6b46c7596cbd57cd79
186,1,"""","""","""","""","""",sampler,45,198385,0.0-6.0-39.0,"""","""","""","""","""","""","""","""","""","""","""","""","2021-08-09 16:16:06",75.33.85.25,"Mozilla/5.0 (Macintosh; Intel Mac OS X 10_14_6) AppleWebKit/537.36 (KHTML, like Gecko) Chrome/92.0.4515.131 Safari/537.36",Macintosh,Chrome,92.0.4515.131,"OS X",10_14_6,5f461dd6c139dd6b46c7596cbd57cd79
186,1,"""","""","""","""","""",sampler,46,198385,0.0-6.0-40.0,"""","""","""","""","""","""","""","""","""","""","""","""","2021-08-09 16:16:06",75.33.85.25,"Mozilla/5.0 (Macintosh; Intel Mac OS X 10_14_6) AppleWebKit/537.36 (KHTML, like Gecko) Chrome/92.0.4515.131 Safari/537.36",Macintosh,Chrome,92.0.4515.131,"OS X",10_14_6,5f461dd6c139dd6b46c7596cbd57cd79
186,1,"""","""","""","""","""",sampler,47,198385,0.0-6.0-41.0,"""","""","""","""","""","""","""","""","""","""","""","""","2021-08-09 16:16:06",75.33.85.25,"Mozilla/5.0 (Macintosh; Intel Mac OS X 10_14_6) AppleWebKit/537.36 (KHTML, like Gecko) Chrome/92.0.4515.131 Safari/537.36",Macintosh,Chrome,92.0.4515.131,"OS X",10_14_6,5f461dd6c139dd6b46c7596cbd57cd79
186,1,"""","""","""","""","""",sampler,48,198386,0.0-6.0-42.0,"""","""","""","""","""","""","""","""","""","""","""","""","2021-08-09 16:16:06",75.33.85.25,"Mozilla/5.0 (Macintosh; Intel Mac OS X 10_14_6) AppleWebKit/537.36 (KHTML, like Gecko) Chrome/92.0.4515.131 Safari/537.36",Macintosh,Chrome,92.0.4515.131,"OS X",10_14_6,5f461dd6c139dd6b46c7596cbd57cd79
186,1,"""","""","""","""","""",sampler,49,198386,0.0-6.0-43.0,"""","""","""","""","""","""","""","""","""","""","""","""","2021-08-09 16:16:06",75.33.85.25,"Mozilla/5.0 (Macintosh; Intel Mac OS X 10_14_6) AppleWebKit/537.36 (KHTML, like Gecko) Chrome/92.0.4515.131 Safari/537.36",Macintosh,Chrome,92.0.4515.131,"OS X",10_14_6,5f461dd6c139dd6b46c7596cbd57cd79
186,1,"""","""","""","""","""",sampler,50,198386,0.0-6.0-44.0,"""","""","""","""","""","""","""","""","""","""","""","""","2021-08-09 16:16:06",75.33.85.25,"Mozilla/5.0 (Macintosh; Intel Mac OS X 10_14_6) AppleWebKit/537.36 (KHTML, like Gecko) Chrome/92.0.4515.131 Safari/537.36",Macintosh,Chrome,92.0.4515.131,"OS X",10_14_6,5f461dd6c139dd6b46c7596cbd57cd79
186,1,"""","""","""","""","""",sampler,51,198386,0.0-6.0-45.0,"""","""","""","""","""","""","""","""","""","""","""","""","2021-08-09 16:16:06",75.33.85.25,"Mozilla/5.0 (Macintosh; Intel Mac OS X 10_14_6) AppleWebKit/537.36 (KHTML, like Gecko) Chrome/92.0.4515.131 Safari/537.36",Macintosh,Chrome,92.0.4515.131,"OS X",10_14_6,5f461dd6c139dd6b46c7596cbd57cd79
186,1,"""","""","""","""","""",sampler,52,198386,0.0-6.0-46.0,"""","""","""","""","""","""","""","""","""","""","""","""","2021-08-09 16:16:06",75.33.85.25,"Mozilla/5.0 (Macintosh; Intel Mac OS X 10_14_6) AppleWebKit/537.36 (KHTML, like Gecko) Chrome/92.0.4515.131 Safari/537.36",Macintosh,Chrome,92.0.4515.131,"OS X",10_14_6,5f461dd6c139dd6b46c7596cbd57cd79
186,1,"""","""","""","""","""",sampler,53,198386,0.0-6.0-47.0,"""","""","""","""","""","""","""","""","""","""","""","""","2021-08-09 16:16:06",75.33.85.25,"Mozilla/5.0 (Macintosh; Intel Mac OS X 10_14_6) AppleWebKit/537.36 (KHTML, like Gecko) Chrome/92.0.4515.131 Safari/537.36",Macintosh,Chrome,92.0.4515.131,"OS X",10_14_6,5f461dd6c139dd6b46c7596cbd57cd79
186,1,"""","""","""","""","""",sampler,54,198387,0.0-6.0-48.0,"""","""","""","""","""","""","""","""","""","""","""","""","2021-08-09 16:16:06",75.33.85.25,"Mozilla/5.0 (Macintosh; Intel Mac OS X 10_14_6) AppleWebKit/537.36 (KHTML, like Gecko) Chrome/92.0.4515.131 Safari/537.36",Macintosh,Chrome,92.0.4515.131,"OS X",10_14_6,5f461dd6c139dd6b46c7596cbd57cd79
186,1,"""","""","""","""","""",sampler,55,198387,0.0-6.0-49.0,"""","""","""","""","""","""","""","""","""","""","""","""","2021-08-09 16:16:06",75.33.85.25,"Mozilla/5.0 (Macintosh; Intel Mac OS X 10_14_6) AppleWebKit/537.36 (KHTML, like Gecko) Chrome/92.0.4515.131 Safari/537.36",Macintosh,Chrome,92.0.4515.131,"OS X",10_14_6,5f461dd6c139dd6b46c7596cbd57cd79
186,1,"""","""","""","""","""",sampler,56,198387,0.0-6.0-50.0,"""","""","""","""","""","""","""","""","""","""","""","""","2021-08-09 16:16:06",75.33.85.25,"Mozilla/5.0 (Macintosh; Intel Mac OS X 10_14_6) AppleWebKit/537.36 (KHTML, like Gecko) Chrome/92.0.4515.131 Safari/537.36",Macintosh,Chrome,92.0.4515.131,"OS X",10_14_6,5f461dd6c139dd6b46c7596cbd57cd79
186,1,"""","""","""","""","""",sampler,57,198387,0.0-6.0-51.0,"""","""","""","""","""","""","""","""","""","""","""","""","2021-08-09 16:16:06",75.33.85.25,"Mozilla/5.0 (Macintosh; Intel Mac OS X 10_14_6) AppleWebKit/537.36 (KHTML, like Gecko) Chrome/92.0.4515.131 Safari/537.36",Macintosh,Chrome,92.0.4515.131,"OS X",10_14_6,5f461dd6c139dd6b46c7596cbd57cd79
186,1,"""","""","""","""","""",sampler,58,198387,0.0-6.0-52.0,"""","""","""","""","""","""","""","""","""","""","""","""","2021-08-09 16:16:06",75.33.85.25,"Mozilla/5.0 (Macintosh; Intel Mac OS X 10_14_6) AppleWebKit/537.36 (KHTML, like Gecko) Chrome/92.0.4515.131 Safari/537.36",Macintosh,Chrome,92.0.4515.131,"OS X",10_14_6,5f461dd6c139dd6b46c7596cbd57cd79
186,1,"""","""","""","""","""",sampler,59,198387,0.0-6.0-53.0,"""","""","""","""","""","""","""","""","""","""","""","""","2021-08-09 16:16:06",75.33.85.25,"Mozilla/5.0 (Macintosh; Intel Mac OS X 10_14_6) AppleWebKit/537.36 (KHTML, like Gecko) Chrome/92.0.4515.131 Safari/537.36",Macintosh,Chrome,92.0.4515.131,"OS X",10_14_6,5f461dd6c139dd6b46c7596cbd57cd79
186,1,"""","""","""","""","""",sampler,60,198388,0.0-6.0-54.0,"""","""","""","""","""","""","""","""","""","""","""","""","2021-08-09 16:16:06",75.33.85.25,"Mozilla/5.0 (Macintosh; Intel Mac OS X 10_14_6) AppleWebKit/537.36 (KHTML, like Gecko) Chrome/92.0.4515.131 Safari/537.36",Macintosh,Chrome,92.0.4515.131,"OS X",10_14_6,5f461dd6c139dd6b46c7596cbd57cd79
186,1,"""","""","""","""","""",sampler,61,198388,0.0-6.0-55.0,"""","""","""","""","""","""","""","""","""","""","""","""","2021-08-09 16:16:06",75.33.85.25,"Mozilla/5.0 (Macintosh; Intel Mac OS X 10_14_6) AppleWebKit/537.36 (KHTML, like Gecko) Chrome/92.0.4515.131 Safari/537.36",Macintosh,Chrome,92.0.4515.131,"OS X",10_14_6,5f461dd6c139dd6b46c7596cbd57cd79
186,1,"""","""","""","""","""",sampler,62,198388,0.0-6.0-56.0,"""","""","""","""","""","""","""","""","""","""","""","""","2021-08-09 16:16:06",75.33.85.25,"Mozilla/5.0 (Macintosh; Intel Mac OS X 10_14_6) AppleWebKit/537.36 (KHTML, like Gecko) Chrome/92.0.4515.131 Safari/537.36",Macintosh,Chrome,92.0.4515.131,"OS X",10_14_6,5f461dd6c139dd6b46c7596cbd57cd79
186,1,"""","""","""","""","""",sampler,63,198388,0.0-6.0-57.0,"""","""","""","""","""","""","""","""","""","""","""","""","2021-08-09 16:16:06",75.33.85.25,"Mozilla/5.0 (Macintosh; Intel Mac OS X 10_14_6) AppleWebKit/537.36 (KHTML, like Gecko) Chrome/92.0.4515.131 Safari/537.36",Macintosh,Chrome,92.0.4515.131,"OS X",10_14_6,5f461dd6c139dd6b46c7596cbd57cd79
186,1,"""","""","""","""","""",sampler,64,198388,0.0-6.0-58.0,"""","""","""","""","""","""","""","""","""","""","""","""","2021-08-09 16:16:06",75.33.85.25,"Mozilla/5.0 (Macintosh; Intel Mac OS X 10_14_6) AppleWebKit/537.36 (KHTML, like Gecko) Chrome/92.0.4515.131 Safari/537.36",Macintosh,Chrome,92.0.4515.131,"OS X",10_14_6,5f461dd6c139dd6b46c7596cbd57cd79
186,1,"""","""","""","""","""",sampler,65,198388,0.0-6.0-59.0,"""","""","""","""","""","""","""","""","""","""","""","""","2021-08-09 16:16:06",75.33.85.25,"Mozilla/5.0 (Macintosh; Intel Mac OS X 10_14_6) AppleWebKit/537.36 (KHTML, like Gecko) Chrome/92.0.4515.131 Safari/537.36",Macintosh,Chrome,92.0.4515.131,"OS X",10_14_6,5f461dd6c139dd6b46c7596cbd57cd79
186,1,"""","""","""","""","""",sampler,66,198389,0.0-6.0-60.0,"""","""","""","""","""","""","""","""","""","""","""","""","2021-08-09 16:16:06",75.33.85.25,"Mozilla/5.0 (Macintosh; Intel Mac OS X 10_14_6) AppleWebKit/537.36 (KHTML, like Gecko) Chrome/92.0.4515.131 Safari/537.36",Macintosh,Chrome,92.0.4515.131,"OS X",10_14_6,5f461dd6c139dd6b46c7596cbd57cd79
186,1,"""","""","""","""","""",sampler,67,198389,0.0-6.0-61.0,"""","""","""","""","""","""","""","""","""","""","""","""","2021-08-09 16:16:06",75.33.85.25,"Mozilla/5.0 (Macintosh; Intel Mac OS X 10_14_6) AppleWebKit/537.36 (KHTML, like Gecko) Chrome/92.0.4515.131 Safari/537.36",Macintosh,Chrome,92.0.4515.131,"OS X",10_14_6,5f461dd6c139dd6b46c7596cbd57cd79
186,1,"""","""","""","""","""",sampler,68,198389,0.0-6.0-62.0,"""","""","""","""","""","""","""","""","""","""","""","""","2021-08-09 16:16:06",75.33.85.25,"Mozilla/5.0 (Macintosh; Intel Mac OS X 10_14_6) AppleWebKit/537.36 (KHTML, like Gecko) Chrome/92.0.4515.131 Safari/537.36",Macintosh,Chrome,92.0.4515.131,"OS X",10_14_6,5f461dd6c139dd6b46c7596cbd57cd79
186,1,"""","""","""","""","""",sampler,69,198389,0.0-6.0-63.0,"""","""","""","""","""","""","""","""","""","""","""","""","2021-08-09 16:16:06",75.33.85.25,"Mozilla/5.0 (Macintosh; Intel Mac OS X 10_14_6) AppleWebKit/537.36 (KHTML, like Gecko) Chrome/92.0.4515.131 Safari/537.36",Macintosh,Chrome,92.0.4515.131,"OS X",10_14_6,5f461dd6c139dd6b46c7596cbd57cd79
186,1,"""","""","""","""","""",sampler,70,198390,0.0-6.0-64.0,"""","""","""","""","""","""","""","""","""","""","""","""","2021-08-09 16:16:06",75.33.85.25,"Mozilla/5.0 (Macintosh; Intel Mac OS X 10_14_6) AppleWebKit/537.36 (KHTML, like Gecko) Chrome/92.0.4515.131 Safari/537.36",Macintosh,Chrome,92.0.4515.131,"OS X",10_14_6,5f461dd6c139dd6b46c7596cbd57cd79
186,1,"""","""","""","""","""",sampler,71,198391,0.0-6.0-65.0,"""","""","""","""","""","""","""","""","""","""","""","""","2021-08-09 16:16:06",75.33.85.25,"Mozilla/5.0 (Macintosh; Intel Mac OS X 10_14_6) AppleWebKit/537.36 (KHTML, like Gecko) Chrome/92.0.4515.131 Safari/537.36",Macintosh,Chrome,92.0.4515.131,"OS X",10_14_6,5f461dd6c139dd6b46c7596cbd57cd79
186,1,"""","""","""","""","""",sampler,72,198391,0.0-6.0-66.0,"""","""","""","""","""","""","""","""","""","""","""","""","2021-08-09 16:16:06",75.33.85.25,"Mozilla/5.0 (Macintosh; Intel Mac OS X 10_14_6) AppleWebKit/537.36 (KHTML, like Gecko) Chrome/92.0.4515.131 Safari/537.36",Macintosh,Chrome,92.0.4515.131,"OS X",10_14_6,5f461dd6c139dd6b46c7596cbd57cd79
186,1,"""","""","""","""","""",sampler,73,198391,0.0-6.0-67.0,"""","""","""","""","""","""","""","""","""","""","""","""","2021-08-09 16:16:06",75.33.85.25,"Mozilla/5.0 (Macintosh; Intel Mac OS X 10_14_6) AppleWebKit/537.36 (KHTML, like Gecko) Chrome/92.0.4515.131 Safari/537.36",Macintosh,Chrome,92.0.4515.131,"OS X",10_14_6,5f461dd6c139dd6b46c7596cbd57cd79
186,1,"""","""","""","""","""",sampler,74,198391,0.0-6.0-68.0,"""","""","""","""","""","""","""","""","""","""","""","""","2021-08-09 16:16:06",75.33.85.25,"Mozilla/5.0 (Macintosh; Intel Mac OS X 10_14_6) AppleWebKit/537.36 (KHTML, like Gecko) Chrome/92.0.4515.131 Safari/537.36",Macintosh,Chrome,92.0.4515.131,"OS X",10_14_6,5f461dd6c139dd6b46c7596cbd57cd79
186,1,"""","""","""","""","""",sampler,75,198391,0.0-6.0-69.0,"""","""","""","""","""","""","""","""","""","""","""","""","2021-08-09 16:16:06",75.33.85.25,"Mozilla/5.0 (Macintosh; Intel Mac OS X 10_14_6) AppleWebKit/537.36 (KHTML, like Gecko) Chrome/92.0.4515.131 Safari/537.36",Macintosh,Chrome,92.0.4515.131,"OS X",10_14_6,5f461dd6c139dd6b46c7596cbd57cd79
186,1,"""","""","""","""","""",sampler,76,198391,0.0-6.0-70.0,"""","""","""","""","""","""","""","""","""","""","""","""","2021-08-09 16:16:06",75.33.85.25,"Mozilla/5.0 (Macintosh; Intel Mac OS X 10_14_6) AppleWebKit/537.36 (KHTML, like Gecko) Chrome/92.0.4515.131 Safari/537.36",Macintosh,Chrome,92.0.4515.131,"OS X",10_14_6,5f461dd6c139dd6b46c7596cbd57cd79
186,1,"""","""","""","""","""",sampler,77,198392,0.0-6.0-71.0,"""","""","""","""","""","""","""","""","""","""","""","""","2021-08-09 16:16:06",75.33.85.25,"Mozilla/5.0 (Macintosh; Intel Mac OS X 10_14_6) AppleWebKit/537.36 (KHTML, like Gecko) Chrome/92.0.4515.131 Safari/537.36",Macintosh,Chrome,92.0.4515.131,"OS X",10_14_6,5f461dd6c139dd6b46c7596cbd57cd79
186,1,"""","""","""","""","""",sampler,78,198392,0.0-6.0-72.0,"""","""","""","""","""","""","""","""","""","""","""","""","2021-08-09 16:16:06",75.33.85.25,"Mozilla/5.0 (Macintosh; Intel Mac OS X 10_14_6) AppleWebKit/537.36 (KHTML, like Gecko) Chrome/92.0.4515.131 Safari/537.36",Macintosh,Chrome,92.0.4515.131,"OS X",10_14_6,5f461dd6c139dd6b46c7596cbd57cd79
186,1,"""","""","""","""","""",sampler,79,198392,0.0-6.0-73.0,"""","""","""","""","""","""","""","""","""","""","""","""","2021-08-09 16:16:06",75.33.85.25,"Mozilla/5.0 (Macintosh; Intel Mac OS X 10_14_6) AppleWebKit/537.36 (KHTML, like Gecko) Chrome/92.0.4515.131 Safari/537.36",Macintosh,Chrome,92.0.4515.131,"OS X",10_14_6,5f461dd6c139dd6b46c7596cbd57cd79
186,1,"""","""","""","""","""",sampler,80,198392,0.0-6.0-74.0,"""","""","""","""","""","""","""","""","""","""","""","""","2021-08-09 16:16:06",75.33.85.25,"Mozilla/5.0 (Macintosh; Intel Mac OS X 10_14_6) AppleWebKit/537.36 (KHTML, like Gecko) Chrome/92.0.4515.131 Safari/537.36",Macintosh,Chrome,92.0.4515.131,"OS X",10_14_6,5f461dd6c139dd6b46c7596cbd57cd79
186,1,"""","""","""","""","""",sampler,81,198392,0.0-6.0-75.0,"""","""","""","""","""","""","""","""","""","""","""","""","2021-08-09 16:16:06",75.33.85.25,"Mozilla/5.0 (Macintosh; Intel Mac OS X 10_14_6) AppleWebKit/537.36 (KHTML, like Gecko) Chrome/92.0.4515.131 Safari/537.36",Macintosh,Chrome,92.0.4515.131,"OS X",10_14_6,5f461dd6c139dd6b46c7596cbd57cd79
186,1,"""","""","""","""","""",sampler,82,198392,0.0-6.0-76.0,"""","""","""","""","""","""","""","""","""","""","""","""","2021-08-09 16:16:06",75.33.85.25,"Mozilla/5.0 (Macintosh; Intel Mac OS X 10_14_6) AppleWebKit/537.36 (KHTML, like Gecko) Chrome/92.0.4515.131 Safari/537.36",Macintosh,Chrome,92.0.4515.131,"OS X",10_14_6,5f461dd6c139dd6b46c7596cbd57cd79
186,1,"""","""","""","""","""",sampler,83,198393,0.0-6.0-77.0,"""","""","""","""","""","""","""","""","""","""","""","""","2021-08-09 16:16:06",75.33.85.25,"Mozilla/5.0 (Macintosh; Intel Mac OS X 10_14_6) AppleWebKit/537.36 (KHTML, like Gecko) Chrome/92.0.4515.131 Safari/537.36",Macintosh,Chrome,92.0.4515.131,"OS X",10_14_6,5f461dd6c139dd6b46c7596cbd57cd79
186,1,"""","""","""","""","""",sampler,84,198393,0.0-6.0-78.0,"""","""","""","""","""","""","""","""","""","""","""","""","2021-08-09 16:16:06",75.33.85.25,"Mozilla/5.0 (Macintosh; Intel Mac OS X 10_14_6) AppleWebKit/537.36 (KHTML, like Gecko) Chrome/92.0.4515.131 Safari/537.36",Macintosh,Chrome,92.0.4515.131,"OS X",10_14_6,5f461dd6c139dd6b46c7596cbd57cd79
186,1,"""","""","""","""","""",sampler,85,198394,0.0-6.0-79.0,"""","""","""","""","""","""","""","""","""","""","""","""","2021-08-09 16:16:06",75.33.85.25,"Mozilla/5.0 (Macintosh; Intel Mac OS X 10_14_6) AppleWebKit/537.36 (KHTML, like Gecko) Chrome/92.0.4515.131 Safari/537.36",Macintosh,Chrome,92.0.4515.131,"OS X",10_14_6,5f461dd6c139dd6b46c7596cbd57cd79
186,1,"""","""","""","""","""",sampler,86,198394,0.0-6.0-80.0,"""","""","""","""","""","""","""","""","""","""","""","""","2021-08-09 16:16:06",75.33.85.25,"Mozilla/5.0 (Macintosh; Intel Mac OS X 10_14_6) AppleWebKit/537.36 (KHTML, like Gecko) Chrome/92.0.4515.131 Safari/537.36",Macintosh,Chrome,92.0.4515.131,"OS X",10_14_6,5f461dd6c139dd6b46c7596cbd57cd79
186,1,"""","""","""","""","""",sampler,87,198394,0.0-6.0-81.0,"""","""","""","""","""","""","""","""","""","""","""","""","2021-08-09 16:16:06",75.33.85.25,"Mozilla/5.0 (Macintosh; Intel Mac OS X 10_14_6) AppleWebKit/537.36 (KHTML, like Gecko) Chrome/92.0.4515.131 Safari/537.36",Macintosh,Chrome,92.0.4515.131,"OS X",10_14_6,5f461dd6c139dd6b46c7596cbd57cd79
186,1,"""","""","""","""","""",sampler,88,198394,0.0-6.0-82.0,"""","""","""","""","""","""","""","""","""","""","""","""","2021-08-09 16:16:06",75.33.85.25,"Mozilla/5.0 (Macintosh; Intel Mac OS X 10_14_6) AppleWebKit/537.36 (KHTML, like Gecko) Chrome/92.0.4515.131 Safari/537.36",Macintosh,Chrome,92.0.4515.131,"OS X",10_14_6,5f461dd6c139dd6b46c7596cbd57cd79
186,1,"""","""","""","""","""",sampler,89,198394,0.0-6.0-83.0,"""","""","""","""","""","""","""","""","""","""","""","""","2021-08-09 16:16:06",75.33.85.25,"Mozilla/5.0 (Macintosh; Intel Mac OS X 10_14_6) AppleWebKit/537.36 (KHTML, like Gecko) Chrome/92.0.4515.131 Safari/537.36",Macintosh,Chrome,92.0.4515.131,"OS X",10_14_6,5f461dd6c139dd6b46c7596cbd57cd79
186,1,"""","""","""","""","""",sampler,90,198394,0.0-6.0-84.0,"""","""","""","""","""","""","""","""","""","""","""","""","2021-08-09 16:16:06",75.33.85.25,"Mozilla/5.0 (Macintosh; Intel Mac OS X 10_14_6) AppleWebKit/537.36 (KHTML, like Gecko) Chrome/92.0.4515.131 Safari/537.36",Macintosh,Chrome,92.0.4515.131,"OS X",10_14_6,5f461dd6c139dd6b46c7596cbd57cd79
186,1,"""","""","""","""","""",sampler,91,198395,0.0-6.0-85.0,"""","""","""","""","""","""","""","""","""","""","""","""","2021-08-09 16:16:06",75.33.85.25,"Mozilla/5.0 (Macintosh; Intel Mac OS X 10_14_6) AppleWebKit/537.36 (KHTML, like Gecko) Chrome/92.0.4515.131 Safari/537.36",Macintosh,Chrome,92.0.4515.131,"OS X",10_14_6,5f461dd6c139dd6b46c7596cbd57cd79
186,1,"""","""","""","""","""",sampler,92,198395,0.0-6.0-86.0,"""","""","""","""","""","""","""","""","""","""","""","""","2021-08-09 16:16:06",75.33.85.25,"Mozilla/5.0 (Macintosh; Intel Mac OS X 10_14_6) AppleWebKit/537.36 (KHTML, like Gecko) Chrome/92.0.4515.131 Safari/537.36",Macintosh,Chrome,92.0.4515.131,"OS X",10_14_6,5f461dd6c139dd6b46c7596cbd57cd79
186,1,"""","""","""","""","""",sampler,93,198395,0.0-6.0-87.0,"""","""","""","""","""","""","""","""","""","""","""","""","2021-08-09 16:16:06",75.33.85.25,"Mozilla/5.0 (Macintosh; Intel Mac OS X 10_14_6) AppleWebKit/537.36 (KHTML, like Gecko) Chrome/92.0.4515.131 Safari/537.36",Macintosh,Chrome,92.0.4515.131,"OS X",10_14_6,5f461dd6c139dd6b46c7596cbd57cd79
186,1,"""","""","""","""","""",sampler,94,198395,0.0-6.0-88.0,"""","""","""","""","""","""","""","""","""","""","""","""","2021-08-09 16:16:06",75.33.85.25,"Mozilla/5.0 (Macintosh; Intel Mac OS X 10_14_6) AppleWebKit/537.36 (KHTML, like Gecko) Chrome/92.0.4515.131 Safari/537.36",Macintosh,Chrome,92.0.4515.131,"OS X",10_14_6,5f461dd6c139dd6b46c7596cbd57cd79
186,1,"""","""","""","""","""",sampler,95,198395,0.0-6.0-89.0,"""","""","""","""","""","""","""","""","""","""","""","""","2021-08-09 16:16:06",75.33.85.25,"Mozilla/5.0 (Macintosh; Intel Mac OS X 10_14_6) AppleWebKit/537.36 (KHTML, like Gecko) Chrome/92.0.4515.131 Safari/537.36",Macintosh,Chrome,92.0.4515.131,"OS X",10_14_6,5f461dd6c139dd6b46c7596cbd57cd79
186,1,"""","""","""","""","""",sampler,96,198395,0.0-6.0-90.0,"""","""","""","""","""","""","""","""","""","""","""","""","2021-08-09 16:16:06",75.33.85.25,"Mozilla/5.0 (Macintosh; Intel Mac OS X 10_14_6) AppleWebKit/537.36 (KHTML, like Gecko) Chrome/92.0.4515.131 Safari/537.36",Macintosh,Chrome,92.0.4515.131,"OS X",10_14_6,5f461dd6c139dd6b46c7596cbd57cd79
186,1,"""","""","""","""","""",sampler,97,198396,0.0-6.0-91.0,"""","""","""","""","""","""","""","""","""","""","""","""","2021-08-09 16:16:06",75.33.85.25,"Mozilla/5.0 (Macintosh; Intel Mac OS X 10_14_6) AppleWebKit/537.36 (KHTML, like Gecko) Chrome/92.0.4515.131 Safari/537.36",Macintosh,Chrome,92.0.4515.131,"OS X",10_14_6,5f461dd6c139dd6b46c7596cbd57cd79
186,1,"""","""","""","""","""",sampler,98,198396,0.0-6.0-92.0,"""","""","""","""","""","""","""","""","""","""","""","""","2021-08-09 16:16:06",75.33.85.25,"Mozilla/5.0 (Macintosh; Intel Mac OS X 10_14_6) AppleWebKit/537.36 (KHTML, like Gecko) Chrome/92.0.4515.131 Safari/537.36",Macintosh,Chrome,92.0.4515.131,"OS X",10_14_6,5f461dd6c139dd6b46c7596cbd57cd79
186,1,"""","""","""","""","""",sampler,99,198396,0.0-6.0-93.0,"""","""","""","""","""","""","""","""","""","""","""","""","2021-08-09 16:16:06",75.33.85.25,"Mozilla/5.0 (Macintosh; Intel Mac OS X 10_14_6) AppleWebKit/537.36 (KHTML, like Gecko) Chrome/92.0.4515.131 Safari/537.36",Macintosh,Chrome,92.0.4515.131,"OS X",10_14_6,5f461dd6c139dd6b46c7596cbd57cd79
186,1,"""","""","""","""","""",sampler,100,198396,0.0-6.0-94.0,"""","""","""","""","""","""","""","""","""","""","""","""","2021-08-09 16:16:06",75.33.85.25,"Mozilla/5.0 (Macintosh; Intel Mac OS X 10_14_6) AppleWebKit/537.36 (KHTML, like Gecko) Chrome/92.0.4515.131 Safari/537.36",Macintosh,Chrome,92.0.4515.131,"OS X",10_14_6,5f461dd6c139dd6b46c7596cbd57cd79
186,1,"""","""","""","""","""",sampler,101,198396,0.0-6.0-95.0,"""","""","""","""","""","""","""","""","""","""","""","""","2021-08-09 16:16:06",75.33.85.25,"Mozilla/5.0 (Macintosh; Intel Mac OS X 10_14_6) AppleWebKit/537.36 (KHTML, like Gecko) Chrome/92.0.4515.131 Safari/537.36",Macintosh,Chrome,92.0.4515.131,"OS X",10_14_6,5f461dd6c139dd6b46c7596cbd57cd79
186,1,"""","""","""","""","""",sampler,102,198396,0.0-6.0-96.0,"""","""","""","""","""","""","""","""","""","""","""","""","2021-08-09 16:16:06",75.33.85.25,"Mozilla/5.0 (Macintosh; Intel Mac OS X 10_14_6) AppleWebKit/537.36 (KHTML, like Gecko) Chrome/92.0.4515.131 Safari/537.36",Macintosh,Chrome,92.0.4515.131,"OS X",10_14_6,5f461dd6c139dd6b46c7596cbd57cd79
186,1,"""","""","""","""","""",sampler,103,198397,0.0-6.0-97.0,"""","""","""","""","""","""","""","""","""","""","""","""","2021-08-09 16:16:06",75.33.85.25,"Mozilla/5.0 (Macintosh; Intel Mac OS X 10_14_6) AppleWebKit/537.36 (KHTML, like Gecko) Chrome/92.0.4515.131 Safari/537.36",Macintosh,Chrome,92.0.4515.131,"OS X",10_14_6,5f461dd6c139dd6b46c7596cbd57cd79
186,1,"""","""","""","""","""",sampler,104,198397,0.0-6.0-98.0,"""","""","""","""","""","""","""","""","""","""","""","""","2021-08-09 16:16:06",75.33.85.25,"Mozilla/5.0 (Macintosh; Intel Mac OS X 10_14_6) AppleWebKit/537.36 (KHTML, like Gecko) Chrome/92.0.4515.131 Safari/537.36",Macintosh,Chrome,92.0.4515.131,"OS X",10_14_6,5f461dd6c139dd6b46c7596cbd57cd79
186,1,"""","""","""","""","""",sampler,105,198397,0.0-6.0-99.0,"""","""","""","""","""","""","""","""","""","""","""","""","2021-08-09 16:16:06",75.33.85.25,"Mozilla/5.0 (Macintosh; Intel Mac OS X 10_14_6) AppleWebKit/537.36 (KHTML, like Gecko) Chrome/92.0.4515.131 Safari/537.36",Macintosh,Chrome,92.0.4515.131,"OS X",10_14_6,5f461dd6c139dd6b46c7596cbd57cd79
186,1,"""","""","""","""","""",sampler,106,198397,0.0-6.0-100.0,"""","""","""","""","""","""","""","""","""","""","""","""","2021-08-09 16:16:06",75.33.85.25,"Mozilla/5.0 (Macintosh; Intel Mac OS X 10_14_6) AppleWebKit/537.36 (KHTML, like Gecko) Chrome/92.0.4515.131 Safari/537.36",Macintosh,Chrome,92.0.4515.131,"OS X",10_14_6,5f461dd6c139dd6b46c7596cbd57cd79
186,1,"""","""","""","""","""",sampler,107,198397,0.0-6.0-101.0,"""","""","""","""","""","""","""","""","""","""","""","""","2021-08-09 16:16:06",75.33.85.25,"Mozilla/5.0 (Macintosh; Intel Mac OS X 10_14_6) AppleWebKit/537.36 (KHTML, like Gecko) Chrome/92.0.4515.131 Safari/537.36",Macintosh,Chrome,92.0.4515.131,"OS X",10_14_6,5f461dd6c139dd6b46c7596cbd57cd79
186,1,"""","""","""","""","""",sampler,108,198397,0.0-6.0-102.0,"""","""","""","""","""","""","""","""","""","""","""","""","2021-08-09 16:16:06",75.33.85.25,"Mozilla/5.0 (Macintosh; Intel Mac OS X 10_14_6) AppleWebKit/537.36 (KHTML, like Gecko) Chrome/92.0.4515.131 Safari/537.36",Macintosh,Chrome,92.0.4515.131,"OS X",10_14_6,5f461dd6c139dd6b46c7596cbd57cd79
186,1,"""","""","""","""","""",sampler,109,198398,0.0-6.0-103.0,"""","""","""","""","""","""","""","""","""","""","""","""","2021-08-09 16:16:06",75.33.85.25,"Mozilla/5.0 (Macintosh; Intel Mac OS X 10_14_6) AppleWebKit/537.36 (KHTML, like Gecko) Chrome/92.0.4515.131 Safari/537.36",Macintosh,Chrome,92.0.4515.131,"OS X",10_14_6,5f461dd6c139dd6b46c7596cbd57cd79
186,1,"""","""","""","""","""",sampler,110,198398,0.0-6.0-104.0,"""","""","""","""","""","""","""","""","""","""","""","""","2021-08-09 16:16:06",75.33.85.25,"Mozilla/5.0 (Macintosh; Intel Mac OS X 10_14_6) AppleWebKit/537.36 (KHTML, like Gecko) Chrome/92.0.4515.131 Safari/537.36",Macintosh,Chrome,92.0.4515.131,"OS X",10_14_6,5f461dd6c139dd6b46c7596cbd57cd79
186,1,"""","""","""","""","""",sampler,111,198398,0.0-6.0-105.0,"""","""","""","""","""","""","""","""","""","""","""","""","2021-08-09 16:16:06",75.33.85.25,"Mozilla/5.0 (Macintosh; Intel Mac OS X 10_14_6) AppleWebKit/537.36 (KHTML, like Gecko) Chrome/92.0.4515.131 Safari/537.36",Macintosh,Chrome,92.0.4515.131,"OS X",10_14_6,5f461dd6c139dd6b46c7596cbd57cd79
186,1,"""","""","""","""","""",sampler,112,198398,0.0-6.0-106.0,"""","""","""","""","""","""","""","""","""","""","""","""","2021-08-09 16:16:06",75.33.85.25,"Mozilla/5.0 (Macintosh; Intel Mac OS X 10_14_6) AppleWebKit/537.36 (KHTML, like Gecko) Chrome/92.0.4515.131 Safari/537.36",Macintosh,Chrome,92.0.4515.131,"OS X",10_14_6,5f461dd6c139dd6b46c7596cbd57cd79
186,1,"""","""","""","""","""",sampler,113,198398,0.0-6.0-107.0,"""","""","""","""","""","""","""","""","""","""","""","""","2021-08-09 16:16:06",75.33.85.25,"Mozilla/5.0 (Macintosh; Intel Mac OS X 10_14_6) AppleWebKit/537.36 (KHTML, like Gecko) Chrome/92.0.4515.131 Safari/537.36",Macintosh,Chrome,92.0.4515.131,"OS X",10_14_6,5f461dd6c139dd6b46c7596cbd57cd79
186,1,"""","""","""","""","""",sampler,114,198398,0.0-6.0-108.0,"""","""","""","""","""","""","""","""","""","""","""","""","2021-08-09 16:16:06",75.33.85.25,"Mozilla/5.0 (Macintosh; Intel Mac OS X 10_14_6) AppleWebKit/537.36 (KHTML, like Gecko) Chrome/92.0.4515.131 Safari/537.36",Macintosh,Chrome,92.0.4515.131,"OS X",10_14_6,5f461dd6c139dd6b46c7596cbd57cd79
186,1,"""","""","""","""","""",sampler,115,198398,0.0-6.0-109.0,"""","""","""","""","""","""","""","""","""","""","""","""","2021-08-09 16:16:06",75.33.85.25,"Mozilla/5.0 (Macintosh; Intel Mac OS X 10_14_6) AppleWebKit/537.36 (KHTML, like Gecko) Chrome/92.0.4515.131 Safari/537.36",Macintosh,Chrome,92.0.4515.131,"OS X",10_14_6,5f461dd6c139dd6b46c7596cbd57cd79
186,1,"""","""","""","""","""",sampler,116,198399,0.0-6.0-110.0,"""","""","""","""","""","""","""","""","""","""","""","""","2021-08-09 16:16:06",75.33.85.25,"Mozilla/5.0 (Macintosh; Intel Mac OS X 10_14_6) AppleWebKit/537.36 (KHTML, like Gecko) Chrome/92.0.4515.131 Safari/537.36",Macintosh,Chrome,92.0.4515.131,"OS X",10_14_6,5f461dd6c139dd6b46c7596cbd57cd79
186,1,"""","""","""","""","""",sampler,117,198399,0.0-6.0-111.0,"""","""","""","""","""","""","""","""","""","""","""","""","2021-08-09 16:16:06",75.33.85.25,"Mozilla/5.0 (Macintosh; Intel Mac OS X 10_14_6) AppleWebKit/537.36 (KHTML, like Gecko) Chrome/92.0.4515.131 Safari/537.36",Macintosh,Chrome,92.0.4515.131,"OS X",10_14_6,5f461dd6c139dd6b46c7596cbd57cd79
186,1,"""","""","""","""","""",sampler,118,198399,0.0-6.0-112.0,"""","""","""","""","""","""","""","""","""","""","""","""","2021-08-09 16:16:06",75.33.85.25,"Mozilla/5.0 (Macintosh; Intel Mac OS X 10_14_6) AppleWebKit/537.36 (KHTML, like Gecko) Chrome/92.0.4515.131 Safari/537.36",Macintosh,Chrome,92.0.4515.131,"OS X",10_14_6,5f461dd6c139dd6b46c7596cbd57cd79
186,1,"""","""","""","""","""",sampler,119,198399,0.0-6.0-113.0,"""","""","""","""","""","""","""","""","""","""","""","""","2021-08-09 16:16:06",75.33.85.25,"Mozilla/5.0 (Macintosh; Intel Mac OS X 10_14_6) AppleWebKit/537.36 (KHTML, like Gecko) Chrome/92.0.4515.131 Safari/537.36",Macintosh,Chrome,92.0.4515.131,"OS X",10_14_6,5f461dd6c139dd6b46c7596cbd57cd79
186,1,"""","""","""","""","""",sampler,120,198399,0.0-6.0-114.0,"""","""","""","""","""","""","""","""","""","""","""","""","2021-08-09 16:16:06",75.33.85.25,"Mozilla/5.0 (Macintosh; Intel Mac OS X 10_14_6) AppleWebKit/537.36 (KHTML, like Gecko) Chrome/92.0.4515.131 Safari/537.36",Macintosh,Chrome,92.0.4515.131,"OS X",10_14_6,5f461dd6c139dd6b46c7596cbd57cd79
186,1,"""","""","""","""","""",sampler,121,198399,0.0-6.0-115.0,"""","""","""","""","""","""","""","""","""","""","""","""","2021-08-09 16:16:06",75.33.85.25,"Mozilla/5.0 (Macintosh; Intel Mac OS X 10_14_6) AppleWebKit/537.36 (KHTML, like Gecko) Chrome/92.0.4515.131 Safari/537.36",Macintosh,Chrome,92.0.4515.131,"OS X",10_14_6,5f461dd6c139dd6b46c7596cbd57cd79
186,1,"""","""","""","""","""",sampler,122,198400,0.0-6.0-116.0,"""","""","""","""","""","""","""","""","""","""","""","""","2021-08-09 16:16:06",75.33.85.25,"Mozilla/5.0 (Macintosh; Intel Mac OS X 10_14_6) AppleWebKit/537.36 (KHTML, like Gecko) Chrome/92.0.4515.131 Safari/537.36",Macintosh,Chrome,92.0.4515.131,"OS X",10_14_6,5f461dd6c139dd6b46c7596cbd57cd79
186,1,"""","""","""","""","""",sampler,123,198400,0.0-6.0-117.0,"""","""","""","""","""","""","""","""","""","""","""","""","2021-08-09 16:16:06",75.33.85.25,"Mozilla/5.0 (Macintosh; Intel Mac OS X 10_14_6) AppleWebKit/537.36 (KHTML, like Gecko) Chrome/92.0.4515.131 Safari/537.36",Macintosh,Chrome,92.0.4515.131,"OS X",10_14_6,5f461dd6c139dd6b46c7596cbd57cd79
186,1,"""","""","""","""","""",sampler,124,198400,0.0-6.0-118.0,"""","""","""","""","""","""","""","""","""","""","""","""","2021-08-09 16:16:06",75.33.85.25,"Mozilla/5.0 (Macintosh; Intel Mac OS X 10_14_6) AppleWebKit/537.36 (KHTML, like Gecko) Chrome/92.0.4515.131 Safari/537.36",Macintosh,Chrome,92.0.4515.131,"OS X",10_14_6,5f461dd6c139dd6b46c7596cbd57cd79
186,1,"""","""","""","""","""",sampler,125,198400,0.0-6.0-119.0,"""","""","""","""","""","""","""","""","""","""","""","""","2021-08-09 16:16:06",75.33.85.25,"Mozilla/5.0 (Macintosh; Intel Mac OS X 10_14_6) AppleWebKit/537.36 (KHTML, like Gecko) Chrome/92.0.4515.131 Safari/537.36",Macintosh,Chrome,92.0.4515.131,"OS X",10_14_6,5f461dd6c139dd6b46c7596cbd57cd79
186,1,"""","""","""","""","""",sampler,126,198400,0.0-6.0-120.0,"""","""","""","""","""","""","""","""","""","""","""","""","2021-08-09 16:16:06",75.33.85.25,"Mozilla/5.0 (Macintosh; Intel Mac OS X 10_14_6) AppleWebKit/537.36 (KHTML, like Gecko) Chrome/92.0.4515.131 Safari/537.36",Macintosh,Chrome,92.0.4515.131,"OS X",10_14_6,5f461dd6c139dd6b46c7596cbd57cd79
186,1,"""","""","""","""","""",sampler,127,198400,0.0-6.0-121.0,"""","""","""","""","""","""","""","""","""","""","""","""","2021-08-09 16:16:06",75.33.85.25,"Mozilla/5.0 (Macintosh; Intel Mac OS X 10_14_6) AppleWebKit/537.36 (KHTML, like Gecko) Chrome/92.0.4515.131 Safari/537.36",Macintosh,Chrome,92.0.4515.131,"OS X",10_14_6,5f461dd6c139dd6b46c7596cbd57cd79
186,1,"""","""","""","""","""",sampler,128,198400,0.0-6.0-122.0,"""","""","""","""","""","""","""","""","""","""","""","""","2021-08-09 16:16:06",75.33.85.25,"Mozilla/5.0 (Macintosh; Intel Mac OS X 10_14_6) AppleWebKit/537.36 (KHTML, like Gecko) Chrome/92.0.4515.131 Safari/537.36",Macintosh,Chrome,92.0.4515.131,"OS X",10_14_6,5f461dd6c139dd6b46c7596cbd57cd79
186,1,"""","""","""","""","""",sampler,129,198400,0.0-6.0-123.0,"""","""","""","""","""","""","""","""","""","""","""","""","2021-08-09 16:16:06",75.33.85.25,"Mozilla/5.0 (Macintosh; Intel Mac OS X 10_14_6) AppleWebKit/537.36 (KHTML, like Gecko) Chrome/92.0.4515.131 Safari/537.36",Macintosh,Chrome,92.0.4515.131,"OS X",10_14_6,5f461dd6c139dd6b46c7596cbd57cd79
186,1,"""","""","""","""","""",sampler,130,198400,0.0-6.0-124.0,"""","""","""","""","""","""","""","""","""","""","""","""","2021-08-09 16:16:06",75.33.85.25,"Mozilla/5.0 (Macintosh; Intel Mac OS X 10_14_6) AppleWebKit/537.36 (KHTML, like Gecko) Chrome/92.0.4515.131 Safari/537.36",Macintosh,Chrome,92.0.4515.131,"OS X",10_14_6,5f461dd6c139dd6b46c7596cbd57cd79
186,1,"""","""","""","""","""",sampler,131,198401,0.0-6.0-125.0,"""","""","""","""","""","""","""","""","""","""","""","""","2021-08-09 16:16:06",75.33.85.25,"Mozilla/5.0 (Macintosh; Intel Mac OS X 10_14_6) AppleWebKit/537.36 (KHTML, like Gecko) Chrome/92.0.4515.131 Safari/537.36",Macintosh,Chrome,92.0.4515.131,"OS X",10_14_6,5f461dd6c139dd6b46c7596cbd57cd79
186,1,"""","""","""","""","""",sampler,132,198401,0.0-6.0-126.0,"""","""","""","""","""","""","""","""","""","""","""","""","2021-08-09 16:16:06",75.33.85.25,"Mozilla/5.0 (Macintosh; Intel Mac OS X 10_14_6) AppleWebKit/537.36 (KHTML, like Gecko) Chrome/92.0.4515.131 Safari/537.36",Macintosh,Chrome,92.0.4515.131,"OS X",10_14_6,5f461dd6c139dd6b46c7596cbd57cd79
186,1,"""","""","""","""","""",sampler,133,198401,0.0-6.0-127.0,"""","""","""","""","""","""","""","""","""","""","""","""","2021-08-09 16:16:06",75.33.85.25,"Mozilla/5.0 (Macintosh; Intel Mac OS X 10_14_6) AppleWebKit/537.36 (KHTML, like Gecko) Chrome/92.0.4515.131 Safari/537.36",Macintosh,Chrome,92.0.4515.131,"OS X",10_14_6,5f461dd6c139dd6b46c7596cbd57cd79
186,1,"""","""","""","""","""",sampler,134,198401,0.0-6.0-128.0,"""","""","""","""","""","""","""","""","""","""","""","""","2021-08-09 16:16:06",75.33.85.25,"Mozilla/5.0 (Macintosh; Intel Mac OS X 10_14_6) AppleWebKit/537.36 (KHTML, like Gecko) Chrome/92.0.4515.131 Safari/537.36",Macintosh,Chrome,92.0.4515.131,"OS X",10_14_6,5f461dd6c139dd6b46c7596cbd57cd79
186,1,"""","""","""","""","""",sampler,135,198401,0.0-6.0-129.0,"""","""","""","""","""","""","""","""","""","""","""","""","2021-08-09 16:16:06",75.33.85.25,"Mozilla/5.0 (Macintosh; Intel Mac OS X 10_14_6) AppleWebKit/537.36 (KHTML, like Gecko) Chrome/92.0.4515.131 Safari/537.36",Macintosh,Chrome,92.0.4515.131,"OS X",10_14_6,5f461dd6c139dd6b46c7596cbd57cd79
186,1,"""","""","""","""","""",sampler,136,198401,0.0-6.0-130.0,"""","""","""","""","""","""","""","""","""","""","""","""","2021-08-09 16:16:06",75.33.85.25,"Mozilla/5.0 (Macintosh; Intel Mac OS X 10_14_6) AppleWebKit/537.36 (KHTML, like Gecko) Chrome/92.0.4515.131 Safari/537.36",Macintosh,Chrome,92.0.4515.131,"OS X",10_14_6,5f461dd6c139dd6b46c7596cbd57cd79
186,1,"""","""","""","""","""",sampler,137,198401,0.0-6.0-131.0,"""","""","""","""","""","""","""","""","""","""","""","""","2021-08-09 16:16:06",75.33.85.25,"Mozilla/5.0 (Macintosh; Intel Mac OS X 10_14_6) AppleWebKit/537.36 (KHTML, like Gecko) Chrome/92.0.4515.131 Safari/537.36",Macintosh,Chrome,92.0.4515.131,"OS X",10_14_6,5f461dd6c139dd6b46c7596cbd57cd79
186,1,"""","""","""","""","""",sampler,138,198401,0.0-6.0-132.0,"""","""","""","""","""","""","""","""","""","""","""","""","2021-08-09 16:16:06",75.33.85.25,"Mozilla/5.0 (Macintosh; Intel Mac OS X 10_14_6) AppleWebKit/537.36 (KHTML, like Gecko) Chrome/92.0.4515.131 Safari/537.36",Macintosh,Chrome,92.0.4515.131,"OS X",10_14_6,5f461dd6c139dd6b46c7596cbd57cd79
186,1,"""","""","""","""","""",sampler,139,198402,0.0-6.0-133.0,"""","""","""","""","""","""","""","""","""","""","""","""","2021-08-09 16:16:06",75.33.85.25,"Mozilla/5.0 (Macintosh; Intel Mac OS X 10_14_6) AppleWebKit/537.36 (KHTML, like Gecko) Chrome/92.0.4515.131 Safari/537.36",Macintosh,Chrome,92.0.4515.131,"OS X",10_14_6,5f461dd6c139dd6b46c7596cbd57cd79
186,1,"""","""","""","""","""",sampler,140,198402,0.0-6.0-134.0,"""","""","""","""","""","""","""","""","""","""","""","""","2021-08-09 16:16:06",75.33.85.25,"Mozilla/5.0 (Macintosh; Intel Mac OS X 10_14_6) AppleWebKit/537.36 (KHTML, like Gecko) Chrome/92.0.4515.131 Safari/537.36",Macintosh,Chrome,92.0.4515.131,"OS X",10_14_6,5f461dd6c139dd6b46c7596cbd57cd79
186,1,"""","""","""","""","""",sampler,141,198402,0.0-6.0-135.0,"""","""","""","""","""","""","""","""","""","""","""","""","2021-08-09 16:16:06",75.33.85.25,"Mozilla/5.0 (Macintosh; Intel Mac OS X 10_14_6) AppleWebKit/537.36 (KHTML, like Gecko) Chrome/92.0.4515.131 Safari/537.36",Macintosh,Chrome,92.0.4515.131,"OS X",10_14_6,5f461dd6c139dd6b46c7596cbd57cd79
186,1,"""","""","""","""","""",sampler,142,198402,0.0-6.0-136.0,"""","""","""","""","""","""","""","""","""","""","""","""","2021-08-09 16:16:06",75.33.85.25,"Mozilla/5.0 (Macintosh; Intel Mac OS X 10_14_6) AppleWebKit/537.36 (KHTML, like Gecko) Chrome/92.0.4515.131 Safari/537.36",Macintosh,Chrome,92.0.4515.131,"OS X",10_14_6,5f461dd6c139dd6b46c7596cbd57cd79
186,1,"""","""","""","""","""",sampler,143,198402,0.0-6.0-137.0,"""","""","""","""","""","""","""","""","""","""","""","""","2021-08-09 16:16:06",75.33.85.25,"Mozilla/5.0 (Macintosh; Intel Mac OS X 10_14_6) AppleWebKit/537.36 (KHTML, like Gecko) Chrome/92.0.4515.131 Safari/537.36",Macintosh,Chrome,92.0.4515.131,"OS X",10_14_6,5f461dd6c139dd6b46c7596cbd57cd79
186,1,"""","""","""","""","""",sampler,144,198402,0.0-6.0-138.0,"""","""","""","""","""","""","""","""","""","""","""","""","2021-08-09 16:16:06",75.33.85.25,"Mozilla/5.0 (Macintosh; Intel Mac OS X 10_14_6) AppleWebKit/537.36 (KHTML, like Gecko) Chrome/92.0.4515.131 Safari/537.36",Macintosh,Chrome,92.0.4515.131,"OS X",10_14_6,5f461dd6c139dd6b46c7596cbd57cd79
186,1,"""","""","""","""","""",sampler,145,198402,0.0-6.0-139.0,"""","""","""","""","""","""","""","""","""","""","""","""","2021-08-09 16:16:06",75.33.85.25,"Mozilla/5.0 (Macintosh; Intel Mac OS X 10_14_6) AppleWebKit/537.36 (KHTML, like Gecko) Chrome/92.0.4515.131 Safari/537.36",Macintosh,Chrome,92.0.4515.131,"OS X",10_14_6,5f461dd6c139dd6b46c7596cbd57cd79
186,1,"""","""","""","""","""",sampler,146,198403,0.0-6.0-140.0,"""","""","""","""","""","""","""","""","""","""","""","""","2021-08-09 16:16:06",75.33.85.25,"Mozilla/5.0 (Macintosh; Intel Mac OS X 10_14_6) AppleWebKit/537.36 (KHTML, like Gecko) Chrome/92.0.4515.131 Safari/537.36",Macintosh,Chrome,92.0.4515.131,"OS X",10_14_6,5f461dd6c139dd6b46c7596cbd57cd79
186,1,"""","""","""","""","""",sampler,147,198403,0.0-6.0-141.0,"""","""","""","""","""","""","""","""","""","""","""","""","2021-08-09 16:16:06",75.33.85.25,"Mozilla/5.0 (Macintosh; Intel Mac OS X 10_14_6) AppleWebKit/537.36 (KHTML, like Gecko) Chrome/92.0.4515.131 Safari/537.36",Macintosh,Chrome,92.0.4515.131,"OS X",10_14_6,5f461dd6c139dd6b46c7596cbd57cd79
186,1,"""","""","""","""","""",sampler,148,198403,0.0-6.0-142.0,"""","""","""","""","""","""","""","""","""","""","""","""","2021-08-09 16:16:06",75.33.85.25,"Mozilla/5.0 (Macintosh; Intel Mac OS X 10_14_6) AppleWebKit/537.36 (KHTML, like Gecko) Chrome/92.0.4515.131 Safari/537.36",Macintosh,Chrome,92.0.4515.131,"OS X",10_14_6,5f461dd6c139dd6b46c7596cbd57cd79
186,1,"""","""","""","""","""",sampler,149,198404,0.0-6.0-143.0,"""","""","""","""","""","""","""","""","""","""","""","""","2021-08-09 16:16:06",75.33.85.25,"Mozilla/5.0 (Macintosh; Intel Mac OS X 10_14_6) AppleWebKit/537.36 (KHTML, like Gecko) Chrome/92.0.4515.131 Safari/537.36",Macintosh,Chrome,92.0.4515.131,"OS X",10_14_6,5f461dd6c139dd6b46c7596cbd57cd79
186,1,"""","""","""","""","""",sampler,150,198404,0.0-6.0-144.0,"""","""","""","""","""","""","""","""","""","""","""","""","2021-08-09 16:16:06",75.33.85.25,"Mozilla/5.0 (Macintosh; Intel Mac OS X 10_14_6) AppleWebKit/537.36 (KHTML, like Gecko) Chrome/92.0.4515.131 Safari/537.36",Macintosh,Chrome,92.0.4515.131,"OS X",10_14_6,5f461dd6c139dd6b46c7596cbd57cd79
186,1,"""","""","""","""","""",sampler,151,198404,0.0-6.0-145.0,"""","""","""","""","""","""","""","""","""","""","""","""","2021-08-09 16:16:06",75.33.85.25,"Mozilla/5.0 (Macintosh; Intel Mac OS X 10_14_6) AppleWebKit/537.36 (KHTML, like Gecko) Chrome/92.0.4515.131 Safari/537.36",Macintosh,Chrome,92.0.4515.131,"OS X",10_14_6,5f461dd6c139dd6b46c7596cbd57cd79
186,1,"""","""","""","""","""",sampler,152,198404,0.0-6.0-146.0,"""","""","""","""","""","""","""","""","""","""","""","""","2021-08-09 16:16:06",75.33.85.25,"Mozilla/5.0 (Macintosh; Intel Mac OS X 10_14_6) AppleWebKit/537.36 (KHTML, like Gecko) Chrome/92.0.4515.131 Safari/537.36",Macintosh,Chrome,92.0.4515.131,"OS X",10_14_6,5f461dd6c139dd6b46c7596cbd57cd79
186,1,"""","""","""","""","""",sampler,153,198404,0.0-6.0-147.0,"""","""","""","""","""","""","""","""","""","""","""","""","2021-08-09 16:16:06",75.33.85.25,"Mozilla/5.0 (Macintosh; Intel Mac OS X 10_14_6) AppleWebKit/537.36 (KHTML, like Gecko) Chrome/92.0.4515.131 Safari/537.36",Macintosh,Chrome,92.0.4515.131,"OS X",10_14_6,5f461dd6c139dd6b46c7596cbd57cd79
186,1,"""","""","""","""","""",sampler,154,198404,0.0-6.0-148.0,"""","""","""","""","""","""","""","""","""","""","""","""","2021-08-09 16:16:06",75.33.85.25,"Mozilla/5.0 (Macintosh; Intel Mac OS X 10_14_6) AppleWebKit/537.36 (KHTML, like Gecko) Chrome/92.0.4515.131 Safari/537.36",Macintosh,Chrome,92.0.4515.131,"OS X",10_14_6,5f461dd6c139dd6b46c7596cbd57cd79
186,1,"""","""","""","""","""",sampler,155,198404,0.0-6.0-149.0,"""","""","""","""","""","""","""","""","""","""","""","""","2021-08-09 16:16:06",75.33.85.25,"Mozilla/5.0 (Macintosh; Intel Mac OS X 10_14_6) AppleWebKit/537.36 (KHTML, like Gecko) Chrome/92.0.4515.131 Safari/537.36",Macintosh,Chrome,92.0.4515.131,"OS X",10_14_6,5f461dd6c139dd6b46c7596cbd57cd79
186,1,"""","""","""","""","""",sampler,156,198404,0.0-6.0-150.0,"""","""","""","""","""","""","""","""","""","""","""","""","2021-08-09 16:16:06",75.33.85.25,"Mozilla/5.0 (Macintosh; Intel Mac OS X 10_14_6) AppleWebKit/537.36 (KHTML, like Gecko) Chrome/92.0.4515.131 Safari/537.36",Macintosh,Chrome,92.0.4515.131,"OS X",10_14_6,5f461dd6c139dd6b46c7596cbd57cd79
186,1,"""","""","""","""","""",sampler,157,198405,0.0-6.0-151.0,"""","""","""","""","""","""","""","""","""","""","""","""","2021-08-09 16:16:06",75.33.85.25,"Mozilla/5.0 (Macintosh; Intel Mac OS X 10_14_6) AppleWebKit/537.36 (KHTML, like Gecko) Chrome/92.0.4515.131 Safari/537.36",Macintosh,Chrome,92.0.4515.131,"OS X",10_14_6,5f461dd6c139dd6b46c7596cbd57cd79
186,1,"""","""","""","""","""",sampler,158,198405,0.0-6.0-152.0,"""","""","""","""","""","""","""","""","""","""","""","""","2021-08-09 16:16:06",75.33.85.25,"Mozilla/5.0 (Macintosh; Intel Mac OS X 10_14_6) AppleWebKit/537.36 (KHTML, like Gecko) Chrome/92.0.4515.131 Safari/537.36",Macintosh,Chrome,92.0.4515.131,"OS X",10_14_6,5f461dd6c139dd6b46c7596cbd57cd79
186,1,"""","""","""","""","""",sampler,159,198405,0.0-6.0-153.0,"""","""","""","""","""","""","""","""","""","""","""","""","2021-08-09 16:16:06",75.33.85.25,"Mozilla/5.0 (Macintosh; Intel Mac OS X 10_14_6) AppleWebKit/537.36 (KHTML, like Gecko) Chrome/92.0.4515.131 Safari/537.36",Macintosh,Chrome,92.0.4515.131,"OS X",10_14_6,5f461dd6c139dd6b46c7596cbd57cd79
186,1,"""","""","""","""","""",sampler,160,198405,0.0-6.0-154.0,"""","""","""","""","""","""","""","""","""","""","""","""","2021-08-09 16:16:06",75.33.85.25,"Mozilla/5.0 (Macintosh; Intel Mac OS X 10_14_6) AppleWebKit/537.36 (KHTML, like Gecko) Chrome/92.0.4515.131 Safari/537.36",Macintosh,Chrome,92.0.4515.131,"OS X",10_14_6,5f461dd6c139dd6b46c7596cbd57cd79
186,1,"""","""","""","""","""",sampler,161,198405,0.0-6.0-155.0,"""","""","""","""","""","""","""","""","""","""","""","""","2021-08-09 16:16:06",75.33.85.25,"Mozilla/5.0 (Macintosh; Intel Mac OS X 10_14_6) AppleWebKit/537.36 (KHTML, like Gecko) Chrome/92.0.4515.131 Safari/537.36",Macintosh,Chrome,92.0.4515.131,"OS X",10_14_6,5f461dd6c139dd6b46c7596cbd57cd79
186,1,"""","""","""","""","""",sampler,162,198405,0.0-6.0-156.0,"""","""","""","""","""","""","""","""","""","""","""","""","2021-08-09 16:16:06",75.33.85.25,"Mozilla/5.0 (Macintosh; Intel Mac OS X 10_14_6) AppleWebKit/537.36 (KHTML, like Gecko) Chrome/92.0.4515.131 Safari/537.36",Macintosh,Chrome,92.0.4515.131,"OS X",10_14_6,5f461dd6c139dd6b46c7596cbd57cd79
186,1,"""","""","""","""","""",sampler,163,198405,0.0-6.0-157.0,"""","""","""","""","""","""","""","""","""","""","""","""","2021-08-09 16:16:06",75.33.85.25,"Mozilla/5.0 (Macintosh; Intel Mac OS X 10_14_6) AppleWebKit/537.36 (KHTML, like Gecko) Chrome/92.0.4515.131 Safari/537.36",Macintosh,Chrome,92.0.4515.131,"OS X",10_14_6,5f461dd6c139dd6b46c7596cbd57cd79
186,1,"""","""","""","""","""",sampler,164,198405,0.0-6.0-158.0,"""","""","""","""","""","""","""","""","""","""","""","""","2021-08-09 16:16:06",75.33.85.25,"Mozilla/5.0 (Macintosh; Intel Mac OS X 10_14_6) AppleWebKit/537.36 (KHTML, like Gecko) Chrome/92.0.4515.131 Safari/537.36",Macintosh,Chrome,92.0.4515.131,"OS X",10_14_6,5f461dd6c139dd6b46c7596cbd57cd79
186,1,"""","""","""","""","""",sampler,165,198405,0.0-6.0-159.0,"""","""","""","""","""","""","""","""","""","""","""","""","2021-08-09 16:16:06",75.33.85.25,"Mozilla/5.0 (Macintosh; Intel Mac OS X 10_14_6) AppleWebKit/537.36 (KHTML, like Gecko) Chrome/92.0.4515.131 Safari/537.36",Macintosh,Chrome,92.0.4515.131,"OS X",10_14_6,5f461dd6c139dd6b46c7596cbd57cd79
186,1,"""","""","""","""","""",sampler,166,198406,0.0-6.0-160.0,"""","""","""","""","""","""","""","""","""","""","""","""","2021-08-09 16:16:06",75.33.85.25,"Mozilla/5.0 (Macintosh; Intel Mac OS X 10_14_6) AppleWebKit/537.36 (KHTML, like Gecko) Chrome/92.0.4515.131 Safari/537.36",Macintosh,Chrome,92.0.4515.131,"OS X",10_14_6,5f461dd6c139dd6b46c7596cbd57cd79
186,1,"""","""","""","""","""",sampler,167,198406,0.0-6.0-161.0,"""","""","""","""","""","""","""","""","""","""","""","""","2021-08-09 16:16:06",75.33.85.25,"Mozilla/5.0 (Macintosh; Intel Mac OS X 10_14_6) AppleWebKit/537.36 (KHTML, like Gecko) Chrome/92.0.4515.131 Safari/537.36",Macintosh,Chrome,92.0.4515.131,"OS X",10_14_6,5f461dd6c139dd6b46c7596cbd57cd79
186,1,"""","""","""","""","""",sampler,168,198406,0.0-6.0-162.0,"""","""","""","""","""","""","""","""","""","""","""","""","2021-08-09 16:16:06",75.33.85.25,"Mozilla/5.0 (Macintosh; Intel Mac OS X 10_14_6) AppleWebKit/537.36 (KHTML, like Gecko) Chrome/92.0.4515.131 Safari/537.36",Macintosh,Chrome,92.0.4515.131,"OS X",10_14_6,5f461dd6c139dd6b46c7596cbd57cd79
186,1,"""","""","""","""","""",sampler,169,198406,0.0-6.0-163.0,"""","""","""","""","""","""","""","""","""","""","""","""","2021-08-09 16:16:06",75.33.85.25,"Mozilla/5.0 (Macintosh; Intel Mac OS X 10_14_6) AppleWebKit/537.36 (KHTML, like Gecko) Chrome/92.0.4515.131 Safari/537.36",Macintosh,Chrome,92.0.4515.131,"OS X",10_14_6,5f461dd6c139dd6b46c7596cbd57cd79
186,1,"""","""","""","""","""",sampler,170,198406,0.0-6.0-164.0,"""","""","""","""","""","""","""","""","""","""","""","""","2021-08-09 16:16:06",75.33.85.25,"Mozilla/5.0 (Macintosh; Intel Mac OS X 10_14_6) AppleWebKit/537.36 (KHTML, like Gecko) Chrome/92.0.4515.131 Safari/537.36",Macintosh,Chrome,92.0.4515.131,"OS X",10_14_6,5f461dd6c139dd6b46c7596cbd57cd79
186,1,"""","""","""","""","""",sampler,171,198406,0.0-6.0-165.0,"""","""","""","""","""","""","""","""","""","""","""","""","2021-08-09 16:16:06",75.33.85.25,"Mozilla/5.0 (Macintosh; Intel Mac OS X 10_14_6) AppleWebKit/537.36 (KHTML, like Gecko) Chrome/92.0.4515.131 Safari/537.36",Macintosh,Chrome,92.0.4515.131,"OS X",10_14_6,5f461dd6c139dd6b46c7596cbd57cd79
186,1,"""","""","""","""","""",sampler,172,198406,0.0-6.0-166.0,"""","""","""","""","""","""","""","""","""","""","""","""","2021-08-09 16:16:06",75.33.85.25,"Mozilla/5.0 (Macintosh; Intel Mac OS X 10_14_6) AppleWebKit/537.36 (KHTML, like Gecko) Chrome/92.0.4515.131 Safari/537.36",Macintosh,Chrome,92.0.4515.131,"OS X",10_14_6,5f461dd6c139dd6b46c7596cbd57cd79
186,1,"""","""","""","""","""",sampler,173,198406,0.0-6.0-167.0,"""","""","""","""","""","""","""","""","""","""","""","""","2021-08-09 16:16:06",75.33.85.25,"Mozilla/5.0 (Macintosh; Intel Mac OS X 10_14_6) AppleWebKit/537.36 (KHTML, like Gecko) Chrome/92.0.4515.131 Safari/537.36",Macintosh,Chrome,92.0.4515.131,"OS X",10_14_6,5f461dd6c139dd6b46c7596cbd57cd79
186,1,"""","""","""","""","""",sampler,174,198406,0.0-6.0-168.0,"""","""","""","""","""","""","""","""","""","""","""","""","2021-08-09 16:16:06",75.33.85.25,"Mozilla/5.0 (Macintosh; Intel Mac OS X 10_14_6) AppleWebKit/537.36 (KHTML, like Gecko) Chrome/92.0.4515.131 Safari/537.36",Macintosh,Chrome,92.0.4515.131,"OS X",10_14_6,5f461dd6c139dd6b46c7596cbd57cd79
186,1,"""","""","""","""","""",sampler,175,198407,0.0-6.0-169.0,"""","""","""","""","""","""","""","""","""","""","""","""","2021-08-09 16:16:06",75.33.85.25,"Mozilla/5.0 (Macintosh; Intel Mac OS X 10_14_6) AppleWebKit/537.36 (KHTML, like Gecko) Chrome/92.0.4515.131 Safari/537.36",Macintosh,Chrome,92.0.4515.131,"OS X",10_14_6,5f461dd6c139dd6b46c7596cbd57cd79
186,1,"""","""","""","""","""",sampler,176,198407,0.0-6.0-170.0,"""","""","""","""","""","""","""","""","""","""","""","""","2021-08-09 16:16:06",75.33.85.25,"Mozilla/5.0 (Macintosh; Intel Mac OS X 10_14_6) AppleWebKit/537.36 (KHTML, like Gecko) Chrome/92.0.4515.131 Safari/537.36",Macintosh,Chrome,92.0.4515.131,"OS X",10_14_6,5f461dd6c139dd6b46c7596cbd57cd79
186,1,"""","""","""","""","""",sampler,177,198407,0.0-6.0-171.0,"""","""","""","""","""","""","""","""","""","""","""","""","2021-08-09 16:16:06",75.33.85.25,"Mozilla/5.0 (Macintosh; Intel Mac OS X 10_14_6) AppleWebKit/537.36 (KHTML, like Gecko) Chrome/92.0.4515.131 Safari/537.36",Macintosh,Chrome,92.0.4515.131,"OS X",10_14_6,5f461dd6c139dd6b46c7596cbd57cd79
186,1,"""","""","""","""","""",sampler,178,198407,0.0-6.0-172.0,"""","""","""","""","""","""","""","""","""","""","""","""","2021-08-09 16:16:06",75.33.85.25,"Mozilla/5.0 (Macintosh; Intel Mac OS X 10_14_6) AppleWebKit/537.36 (KHTML, like Gecko) Chrome/92.0.4515.131 Safari/537.36",Macintosh,Chrome,92.0.4515.131,"OS X",10_14_6,5f461dd6c139dd6b46c7596cbd57cd79
186,1,"""","""","""","""","""",sampler,179,198407,0.0-6.0-173.0,"""","""","""","""","""","""","""","""","""","""","""","""","2021-08-09 16:16:06",75.33.85.25,"Mozilla/5.0 (Macintosh; Intel Mac OS X 10_14_6) AppleWebKit/537.36 (KHTML, like Gecko) Chrome/92.0.4515.131 Safari/537.36",Macintosh,Chrome,92.0.4515.131,"OS X",10_14_6,5f461dd6c139dd6b46c7596cbd57cd79
186,1,"""","""","""","""","""",sampler,180,198407,0.0-6.0-174.0,"""","""","""","""","""","""","""","""","""","""","""","""","2021-08-09 16:16:06",75.33.85.25,"Mozilla/5.0 (Macintosh; Intel Mac OS X 10_14_6) AppleWebKit/537.36 (KHTML, like Gecko) Chrome/92.0.4515.131 Safari/537.36",Macintosh,Chrome,92.0.4515.131,"OS X",10_14_6,5f461dd6c139dd6b46c7596cbd57cd79
186,1,"""","""","""","""","""",sampler,181,198407,0.0-6.0-175.0,"""","""","""","""","""","""","""","""","""","""","""","""","2021-08-09 16:16:06",75.33.85.25,"Mozilla/5.0 (Macintosh; Intel Mac OS X 10_14_6) AppleWebKit/537.36 (KHTML, like Gecko) Chrome/92.0.4515.131 Safari/537.36",Macintosh,Chrome,92.0.4515.131,"OS X",10_14_6,5f461dd6c139dd6b46c7596cbd57cd79
186,1,"""","""","""","""","""",sampler,182,198407,0.0-6.0-176.0,"""","""","""","""","""","""","""","""","""","""","""","""","2021-08-09 16:16:06",75.33.85.25,"Mozilla/5.0 (Macintosh; Intel Mac OS X 10_14_6) AppleWebKit/537.36 (KHTML, like Gecko) Chrome/92.0.4515.131 Safari/537.36",Macintosh,Chrome,92.0.4515.131,"OS X",10_14_6,5f461dd6c139dd6b46c7596cbd57cd79
186,1,"""","""","""","""","""",sampler,183,198408,0.0-6.0-177.0,"""","""","""","""","""","""","""","""","""","""","""","""","2021-08-09 16:16:06",75.33.85.25,"Mozilla/5.0 (Macintosh; Intel Mac OS X 10_14_6) AppleWebKit/537.36 (KHTML, like Gecko) Chrome/92.0.4515.131 Safari/537.36",Macintosh,Chrome,92.0.4515.131,"OS X",10_14_6,5f461dd6c139dd6b46c7596cbd57cd79
186,1,"""","""","""","""","""",sampler,184,198408,0.0-6.0-178.0,"""","""","""","""","""","""","""","""","""","""","""","""","2021-08-09 16:16:06",75.33.85.25,"Mozilla/5.0 (Macintosh; Intel Mac OS X 10_14_6) AppleWebKit/537.36 (KHTML, like Gecko) Chrome/92.0.4515.131 Safari/537.36",Macintosh,Chrome,92.0.4515.131,"OS X",10_14_6,5f461dd6c139dd6b46c7596cbd57cd79
186,1,"""","""","""","""","""",sampler,185,198408,0.0-6.0-179.0,"""","""","""","""","""","""","""","""","""","""","""","""","2021-08-09 16:16:06",75.33.85.25,"Mozilla/5.0 (Macintosh; Intel Mac OS X 10_14_6) AppleWebKit/537.36 (KHTML, like Gecko) Chrome/92.0.4515.131 Safari/537.36",Macintosh,Chrome,92.0.4515.131,"OS X",10_14_6,5f461dd6c139dd6b46c7596cbd57cd79
186,1,"""","""","""","""","""",sampler,186,198408,0.0-6.0-180.0,"""","""","""","""","""","""","""","""","""","""","""","""","2021-08-09 16:16:06",75.33.85.25,"Mozilla/5.0 (Macintosh; Intel Mac OS X 10_14_6) AppleWebKit/537.36 (KHTML, like Gecko) Chrome/92.0.4515.131 Safari/537.36",Macintosh,Chrome,92.0.4515.131,"OS X",10_14_6,5f461dd6c139dd6b46c7596cbd57cd79
186,1,"""","""","""","""","""",sampler,187,198408,0.0-6.0-181.0,"""","""","""","""","""","""","""","""","""","""","""","""","2021-08-09 16:16:06",75.33.85.25,"Mozilla/5.0 (Macintosh; Intel Mac OS X 10_14_6) AppleWebKit/537.36 (KHTML, like Gecko) Chrome/92.0.4515.131 Safari/537.36",Macintosh,Chrome,92.0.4515.131,"OS X",10_14_6,5f461dd6c139dd6b46c7596cbd57cd79
186,1,"""","""","""","""","""",sampler,188,198408,0.0-6.0-182.0,"""","""","""","""","""","""","""","""","""","""","""","""","2021-08-09 16:16:06",75.33.85.25,"Mozilla/5.0 (Macintosh; Intel Mac OS X 10_14_6) AppleWebKit/537.36 (KHTML, like Gecko) Chrome/92.0.4515.131 Safari/537.36",Macintosh,Chrome,92.0.4515.131,"OS X",10_14_6,5f461dd6c139dd6b46c7596cbd57cd79
186,1,"""","""","""","""","""",sampler,189,198408,0.0-6.0-183.0,"""","""","""","""","""","""","""","""","""","""","""","""","2021-08-09 16:16:06",75.33.85.25,"Mozilla/5.0 (Macintosh; Intel Mac OS X 10_14_6) AppleWebKit/537.36 (KHTML, like Gecko) Chrome/92.0.4515.131 Safari/537.36",Macintosh,Chrome,92.0.4515.131,"OS X",10_14_6,5f461dd6c139dd6b46c7596cbd57cd79
186,1,"""","""","""","""","""",sampler,190,198408,0.0-6.0-184.0,"""","""","""","""","""","""","""","""","""","""","""","""","2021-08-09 16:16:06",75.33.85.25,"Mozilla/5.0 (Macintosh; Intel Mac OS X 10_14_6) AppleWebKit/537.36 (KHTML, like Gecko) Chrome/92.0.4515.131 Safari/537.36",Macintosh,Chrome,92.0.4515.131,"OS X",10_14_6,5f461dd6c139dd6b46c7596cbd57cd79
186,1,"""","""","""","""","""",sampler,191,198408,0.0-6.0-185.0,"""","""","""","""","""","""","""","""","""","""","""","""","2021-08-09 16:16:06",75.33.85.25,"Mozilla/5.0 (Macintosh; Intel Mac OS X 10_14_6) AppleWebKit/537.36 (KHTML, like Gecko) Chrome/92.0.4515.131 Safari/537.36",Macintosh,Chrome,92.0.4515.131,"OS X",10_14_6,5f461dd6c139dd6b46c7596cbd57cd79
186,1,"""","""","""","""","""",sampler,192,198409,0.0-6.0-186.0,"""","""","""","""","""","""","""","""","""","""","""","""","2021-08-09 16:16:06",75.33.85.25,"Mozilla/5.0 (Macintosh; Intel Mac OS X 10_14_6) AppleWebKit/537.36 (KHTML, like Gecko) Chrome/92.0.4515.131 Safari/537.36",Macintosh,Chrome,92.0.4515.131,"OS X",10_14_6,5f461dd6c139dd6b46c7596cbd57cd79
186,1,"""","""","""","""","""",sampler,193,198409,0.0-6.0-187.0,"""","""","""","""","""","""","""","""","""","""","""","""","2021-08-09 16:16:06",75.33.85.25,"Mozilla/5.0 (Macintosh; Intel Mac OS X 10_14_6) AppleWebKit/537.36 (KHTML, like Gecko) Chrome/92.0.4515.131 Safari/537.36",Macintosh,Chrome,92.0.4515.131,"OS X",10_14_6,5f461dd6c139dd6b46c7596cbd57cd79
186,1,"""","""","""","""","""",sampler,194,198409,0.0-6.0-188.0,"""","""","""","""","""","""","""","""","""","""","""","""","2021-08-09 16:16:06",75.33.85.25,"Mozilla/5.0 (Macintosh; Intel Mac OS X 10_14_6) AppleWebKit/537.36 (KHTML, like Gecko) Chrome/92.0.4515.131 Safari/537.36",Macintosh,Chrome,92.0.4515.131,"OS X",10_14_6,5f461dd6c139dd6b46c7596cbd57cd79
186,1,"""","""","""","""","""",sampler,195,198409,0.0-6.0-189.0,"""","""","""","""","""","""","""","""","""","""","""","""","2021-08-09 16:16:06",75.33.85.25,"Mozilla/5.0 (Macintosh; Intel Mac OS X 10_14_6) AppleWebKit/537.36 (KHTML, like Gecko) Chrome/92.0.4515.131 Safari/537.36",Macintosh,Chrome,92.0.4515.131,"OS X",10_14_6,5f461dd6c139dd6b46c7596cbd57cd79
186,1,"""","""","""","""","""",sampler,196,198409,0.0-6.0-190.0,"""","""","""","""","""","""","""","""","""","""","""","""","2021-08-09 16:16:06",75.33.85.25,"Mozilla/5.0 (Macintosh; Intel Mac OS X 10_14_6) AppleWebKit/537.36 (KHTML, like Gecko) Chrome/92.0.4515.131 Safari/537.36",Macintosh,Chrome,92.0.4515.131,"OS X",10_14_6,5f461dd6c139dd6b46c7596cbd57cd79
186,1,"""","""","""","""","""",sampler,197,198409,0.0-6.0-191.0,"""","""","""","""","""","""","""","""","""","""","""","""","2021-08-09 16:16:06",75.33.85.25,"Mozilla/5.0 (Macintosh; Intel Mac OS X 10_14_6) AppleWebKit/537.36 (KHTML, like Gecko) Chrome/92.0.4515.131 Safari/537.36",Macintosh,Chrome,92.0.4515.131,"OS X",10_14_6,5f461dd6c139dd6b46c7596cbd57cd79
186,1,"""","""","""","""","""",sampler,198,198409,0.0-6.0-192.0,"""","""","""","""","""","""","""","""","""","""","""","""","2021-08-09 16:16:06",75.33.85.25,"Mozilla/5.0 (Macintosh; Intel Mac OS X 10_14_6) AppleWebKit/537.36 (KHTML, like Gecko) Chrome/92.0.4515.131 Safari/537.36",Macintosh,Chrome,92.0.4515.131,"OS X",10_14_6,5f461dd6c139dd6b46c7596cbd57cd79
186,1,"""","""","""","""","""",sampler,199,198409,0.0-6.0-193.0,"""","""","""","""","""","""","""","""","""","""","""","""","2021-08-09 16:16:06",75.33.85.25,"Mozilla/5.0 (Macintosh; Intel Mac OS X 10_14_6) AppleWebKit/537.36 (KHTML, like Gecko) Chrome/92.0.4515.131 Safari/537.36",Macintosh,Chrome,92.0.4515.131,"OS X",10_14_6,5f461dd6c139dd6b46c7596cbd57cd79
186,1,"""","""","""","""","""",sampler,200,198409,0.0-6.0-194.0,"""","""","""","""","""","""","""","""","""","""","""","""","2021-08-09 16:16:06",75.33.85.25,"Mozilla/5.0 (Macintosh; Intel Mac OS X 10_14_6) AppleWebKit/537.36 (KHTML, like Gecko) Chrome/92.0.4515.131 Safari/537.36",Macintosh,Chrome,92.0.4515.131,"OS X",10_14_6,5f461dd6c139dd6b46c7596cbd57cd79
186,1,"""","""","""","""","""",sampler,201,198410,0.0-6.0-195.0,"""","""","""","""","""","""","""","""","""","""","""","""","2021-08-09 16:16:06",75.33.85.25,"Mozilla/5.0 (Macintosh; Intel Mac OS X 10_14_6) AppleWebKit/537.36 (KHTML, like Gecko) Chrome/92.0.4515.131 Safari/537.36",Macintosh,Chrome,92.0.4515.131,"OS X",10_14_6,5f461dd6c139dd6b46c7596cbd57cd79
186,1,"""","""","""","""","""",sampler,202,198410,0.0-6.0-196.0,"""","""","""","""","""","""","""","""","""","""","""","""","2021-08-09 16:16:06",75.33.85.25,"Mozilla/5.0 (Macintosh; Intel Mac OS X 10_14_6) AppleWebKit/537.36 (KHTML, like Gecko) Chrome/92.0.4515.131 Safari/537.36",Macintosh,Chrome,92.0.4515.131,"OS X",10_14_6,5f461dd6c139dd6b46c7596cbd57cd79
186,1,"""","""","""","""","""",sampler,203,198410,0.0-6.0-197.0,"""","""","""","""","""","""","""","""","""","""","""","""","2021-08-09 16:16:06",75.33.85.25,"Mozilla/5.0 (Macintosh; Intel Mac OS X 10_14_6) AppleWebKit/537.36 (KHTML, like Gecko) Chrome/92.0.4515.131 Safari/537.36",Macintosh,Chrome,92.0.4515.131,"OS X",10_14_6,5f461dd6c139dd6b46c7596cbd57cd79
186,1,"""","""","""","""","""",sampler,204,198410,0.0-6.0-198.0,"""","""","""","""","""","""","""","""","""","""","""","""","2021-08-09 16:16:06",75.33.85.25,"Mozilla/5.0 (Macintosh; Intel Mac OS X 10_14_6) AppleWebKit/537.36 (KHTML, like Gecko) Chrome/92.0.4515.131 Safari/537.36",Macintosh,Chrome,92.0.4515.131,"OS X",10_14_6,5f461dd6c139dd6b46c7596cbd57cd79
186,1,"""","""","""","""","""",sampler,205,198410,0.0-6.0-199.0,"""","""","""","""","""","""","""","""","""","""","""","""","2021-08-09 16:16:06",75.33.85.25,"Mozilla/5.0 (Macintosh; Intel Mac OS X 10_14_6) AppleWebKit/537.36 (KHTML, like Gecko) Chrome/92.0.4515.131 Safari/537.36",Macintosh,Chrome,92.0.4515.131,"OS X",10_14_6,5f461dd6c139dd6b46c7596cbd57cd79
186,1,"""","""","""","""","""",sampler,206,198410,0.0-6.0-200.0,"""","""","""","""","""","""","""","""","""","""","""","""","2021-08-09 16:16:06",75.33.85.25,"Mozilla/5.0 (Macintosh; Intel Mac OS X 10_14_6) AppleWebKit/537.36 (KHTML, like Gecko) Chrome/92.0.4515.131 Safari/537.36",Macintosh,Chrome,92.0.4515.131,"OS X",10_14_6,5f461dd6c139dd6b46c7596cbd57cd79
186,1,"""","""","""","""","""",sampler,207,198410,0.0-6.0-201.0,"""","""","""","""","""","""","""","""","""","""","""","""","2021-08-09 16:16:06",75.33.85.25,"Mozilla/5.0 (Macintosh; Intel Mac OS X 10_14_6) AppleWebKit/537.36 (KHTML, like Gecko) Chrome/92.0.4515.131 Safari/537.36",Macintosh,Chrome,92.0.4515.131,"OS X",10_14_6,5f461dd6c139dd6b46c7596cbd57cd79
186,1,"""","""","""","""","""",sampler,208,198410,0.0-6.0-202.0,"""","""","""","""","""","""","""","""","""","""","""","""","2021-08-09 16:16:06",75.33.85.25,"Mozilla/5.0 (Macintosh; Intel Mac OS X 10_14_6) AppleWebKit/537.36 (KHTML, like Gecko) Chrome/92.0.4515.131 Safari/537.36",Macintosh,Chrome,92.0.4515.131,"OS X",10_14_6,5f461dd6c139dd6b46c7596cbd57cd79
186,1,"""","""","""","""","""",sampler,209,198411,0.0-6.0-203.0,"""","""","""","""","""","""","""","""","""","""","""","""","2021-08-09 16:16:06",75.33.85.25,"Mozilla/5.0 (Macintosh; Intel Mac OS X 10_14_6) AppleWebKit/537.36 (KHTML, like Gecko) Chrome/92.0.4515.131 Safari/537.36",Macintosh,Chrome,92.0.4515.131,"OS X",10_14_6,5f461dd6c139dd6b46c7596cbd57cd79
186,1,"""","""","""","""","""",sampler,210,198411,0.0-6.0-204.0,"""","""","""","""","""","""","""","""","""","""","""","""","2021-08-09 16:16:06",75.33.85.25,"Mozilla/5.0 (Macintosh; Intel Mac OS X 10_14_6) AppleWebKit/537.36 (KHTML, like Gecko) Chrome/92.0.4515.131 Safari/537.36",Macintosh,Chrome,92.0.4515.131,"OS X",10_14_6,5f461dd6c139dd6b46c7596cbd57cd79
186,1,"""","""","""","""","""",sampler,211,198411,0.0-6.0-205.0,"""","""","""","""","""","""","""","""","""","""","""","""","2021-08-09 16:16:06",75.33.85.25,"Mozilla/5.0 (Macintosh; Intel Mac OS X 10_14_6) AppleWebKit/537.36 (KHTML, like Gecko) Chrome/92.0.4515.131 Safari/537.36",Macintosh,Chrome,92.0.4515.131,"OS X",10_14_6,5f461dd6c139dd6b46c7596cbd57cd79
186,1,"""","""","""","""","""",sampler,212,198411,0.0-6.0-206.0,"""","""","""","""","""","""","""","""","""","""","""","""","2021-08-09 16:16:06",75.33.85.25,"Mozilla/5.0 (Macintosh; Intel Mac OS X 10_14_6) AppleWebKit/537.36 (KHTML, like Gecko) Chrome/92.0.4515.131 Safari/537.36",Macintosh,Chrome,92.0.4515.131,"OS X",10_14_6,5f461dd6c139dd6b46c7596cbd57cd79
186,1,"""","""","""","""","""",sampler,213,198411,0.0-6.0-207.0,"""","""","""","""","""","""","""","""","""","""","""","""","2021-08-09 16:16:06",75.33.85.25,"Mozilla/5.0 (Macintosh; Intel Mac OS X 10_14_6) AppleWebKit/537.36 (KHTML, like Gecko) Chrome/92.0.4515.131 Safari/537.36",Macintosh,Chrome,92.0.4515.131,"OS X",10_14_6,5f461dd6c139dd6b46c7596cbd57cd79
186,1,"""","""","""","""","""",sampler,214,198411,0.0-6.0-208.0,"""","""","""","""","""","""","""","""","""","""","""","""","2021-08-09 16:16:06",75.33.85.25,"Mozilla/5.0 (Macintosh; Intel Mac OS X 10_14_6) AppleWebKit/537.36 (KHTML, like Gecko) Chrome/92.0.4515.131 Safari/537.36",Macintosh,Chrome,92.0.4515.131,"OS X",10_14_6,5f461dd6c139dd6b46c7596cbd57cd79
186,1,"""","""","""","""","""",sampler,215,198411,0.0-6.0-209.0,"""","""","""","""","""","""","""","""","""","""","""","""","2021-08-09 16:16:06",75.33.85.25,"Mozilla/5.0 (Macintosh; Intel Mac OS X 10_14_6) AppleWebKit/537.36 (KHTML, like Gecko) Chrome/92.0.4515.131 Safari/537.36",Macintosh,Chrome,92.0.4515.131,"OS X",10_14_6,5f461dd6c139dd6b46c7596cbd57cd79
186,1,"""","""","""","""","""",sampler,216,198411,0.0-6.0-210.0,"""","""","""","""","""","""","""","""","""","""","""","""","2021-08-09 16:16:06",75.33.85.25,"Mozilla/5.0 (Macintosh; Intel Mac OS X 10_14_6) AppleWebKit/537.36 (KHTML, like Gecko) Chrome/92.0.4515.131 Safari/537.36",Macintosh,Chrome,92.0.4515.131,"OS X",10_14_6,5f461dd6c139dd6b46c7596cbd57cd79
186,1,"""","""","""","""","""",sampler,217,198411,0.0-6.0-211.0,"""","""","""","""","""","""","""","""","""","""","""","""","2021-08-09 16:16:06",75.33.85.25,"Mozilla/5.0 (Macintosh; Intel Mac OS X 10_14_6) AppleWebKit/537.36 (KHTML, like Gecko) Chrome/92.0.4515.131 Safari/537.36",Macintosh,Chrome,92.0.4515.131,"OS X",10_14_6,5f461dd6c139dd6b46c7596cbd57cd79
186,1,"""","""","""","""","""",sampler,218,198412,0.0-6.0-212.0,"""","""","""","""","""","""","""","""","""","""","""","""","2021-08-09 16:16:06",75.33.85.25,"Mozilla/5.0 (Macintosh; Intel Mac OS X 10_14_6) AppleWebKit/537.36 (KHTML, like Gecko) Chrome/92.0.4515.131 Safari/537.36",Macintosh,Chrome,92.0.4515.131,"OS X",10_14_6,5f461dd6c139dd6b46c7596cbd57cd79
186,1,"""","""","""","""","""",sampler,219,198412,0.0-6.0-213.0,"""","""","""","""","""","""","""","""","""","""","""","""","2021-08-09 16:16:06",75.33.85.25,"Mozilla/5.0 (Macintosh; Intel Mac OS X 10_14_6) AppleWebKit/537.36 (KHTML, like Gecko) Chrome/92.0.4515.131 Safari/537.36",Macintosh,Chrome,92.0.4515.131,"OS X",10_14_6,5f461dd6c139dd6b46c7596cbd57cd79
186,1,"""","""","""","""","""",sampler,220,198412,0.0-6.0-214.0,"""","""","""","""","""","""","""","""","""","""","""","""","2021-08-09 16:16:06",75.33.85.25,"Mozilla/5.0 (Macintosh; Intel Mac OS X 10_14_6) AppleWebKit/537.36 (KHTML, like Gecko) Chrome/92.0.4515.131 Safari/537.36",Macintosh,Chrome,92.0.4515.131,"OS X",10_14_6,5f461dd6c139dd6b46c7596cbd57cd79
186,1,"""","""","""","""","""",sampler,221,198412,0.0-6.0-215.0,"""","""","""","""","""","""","""","""","""","""","""","""","2021-08-09 16:16:06",75.33.85.25,"Mozilla/5.0 (Macintosh; Intel Mac OS X 10_14_6) AppleWebKit/537.36 (KHTML, like Gecko) Chrome/92.0.4515.131 Safari/537.36",Macintosh,Chrome,92.0.4515.131,"OS X",10_14_6,5f461dd6c139dd6b46c7596cbd57cd79
186,1,"""","""","""","""","""",sampler,222,198412,0.0-6.0-216.0,"""","""","""","""","""","""","""","""","""","""","""","""","2021-08-09 16:16:06",75.33.85.25,"Mozilla/5.0 (Macintosh; Intel Mac OS X 10_14_6) AppleWebKit/537.36 (KHTML, like Gecko) Chrome/92.0.4515.131 Safari/537.36",Macintosh,Chrome,92.0.4515.131,"OS X",10_14_6,5f461dd6c139dd6b46c7596cbd57cd79
186,1,"""","""","""","""","""",sampler,223,198412,0.0-6.0-217.0,"""","""","""","""","""","""","""","""","""","""","""","""","2021-08-09 16:16:06",75.33.85.25,"Mozilla/5.0 (Macintosh; Intel Mac OS X 10_14_6) AppleWebKit/537.36 (KHTML, like Gecko) Chrome/92.0.4515.131 Safari/537.36",Macintosh,Chrome,92.0.4515.131,"OS X",10_14_6,5f461dd6c139dd6b46c7596cbd57cd79
186,1,"""","""","""","""","""",sampler,224,198412,0.0-6.0-218.0,"""","""","""","""","""","""","""","""","""","""","""","""","2021-08-09 16:16:06",75.33.85.25,"Mozilla/5.0 (Macintosh; Intel Mac OS X 10_14_6) AppleWebKit/537.36 (KHTML, like Gecko) Chrome/92.0.4515.131 Safari/537.36",Macintosh,Chrome,92.0.4515.131,"OS X",10_14_6,5f461dd6c139dd6b46c7596cbd57cd79
186,1,"""","""","""","""","""",sampler,225,198412,0.0-6.0-219.0,"""","""","""","""","""","""","""","""","""","""","""","""","2021-08-09 16:16:06",75.33.85.25,"Mozilla/5.0 (Macintosh; Intel Mac OS X 10_14_6) AppleWebKit/537.36 (KHTML, like Gecko) Chrome/92.0.4515.131 Safari/537.36",Macintosh,Chrome,92.0.4515.131,"OS X",10_14_6,5f461dd6c139dd6b46c7596cbd57cd79
186,1,"""","""","""","""","""",sampler,226,198413,0.0-6.0-220.0,"""","""","""","""","""","""","""","""","""","""","""","""","2021-08-09 16:16:06",75.33.85.25,"Mozilla/5.0 (Macintosh; Intel Mac OS X 10_14_6) AppleWebKit/537.36 (KHTML, like Gecko) Chrome/92.0.4515.131 Safari/537.36",Macintosh,Chrome,92.0.4515.131,"OS X",10_14_6,5f461dd6c139dd6b46c7596cbd57cd79
186,1,"""","""","""","""","""",sampler,227,198413,0.0-6.0-221.0,"""","""","""","""","""","""","""","""","""","""","""","""","2021-08-09 16:16:06",75.33.85.25,"Mozilla/5.0 (Macintosh; Intel Mac OS X 10_14_6) AppleWebKit/537.36 (KHTML, like Gecko) Chrome/92.0.4515.131 Safari/537.36",Macintosh,Chrome,92.0.4515.131,"OS X",10_14_6,5f461dd6c139dd6b46c7596cbd57cd79
186,1,"""","""","""","""","""",sampler,228,198414,0.0-6.0-222.0,"""","""","""","""","""","""","""","""","""","""","""","""","2021-08-09 16:16:06",75.33.85.25,"Mozilla/5.0 (Macintosh; Intel Mac OS X 10_14_6) AppleWebKit/537.36 (KHTML, like Gecko) Chrome/92.0.4515.131 Safari/537.36",Macintosh,Chrome,92.0.4515.131,"OS X",10_14_6,5f461dd6c139dd6b46c7596cbd57cd79
186,1,"""","""","""","""","""",sampler,229,198414,0.0-6.0-223.0,"""","""","""","""","""","""","""","""","""","""","""","""","2021-08-09 16:16:06",75.33.85.25,"Mozilla/5.0 (Macintosh; Intel Mac OS X 10_14_6) AppleWebKit/537.36 (KHTML, like Gecko) Chrome/92.0.4515.131 Safari/537.36",Macintosh,Chrome,92.0.4515.131,"OS X",10_14_6,5f461dd6c139dd6b46c7596cbd57cd79
186,1,"""","""","""","""","""",sampler,230,198414,0.0-6.0-224.0,"""","""","""","""","""","""","""","""","""","""","""","""","2021-08-09 16:16:06",75.33.85.25,"Mozilla/5.0 (Macintosh; Intel Mac OS X 10_14_6) AppleWebKit/537.36 (KHTML, like Gecko) Chrome/92.0.4515.131 Safari/537.36",Macintosh,Chrome,92.0.4515.131,"OS X",10_14_6,5f461dd6c139dd6b46c7596cbd57cd79
186,1,"""","""","""","""","""",sampler,231,198414,0.0-6.0-225.0,"""","""","""","""","""","""","""","""","""","""","""","""","2021-08-09 16:16:06",75.33.85.25,"Mozilla/5.0 (Macintosh; Intel Mac OS X 10_14_6) AppleWebKit/537.36 (KHTML, like Gecko) Chrome/92.0.4515.131 Safari/537.36",Macintosh,Chrome,92.0.4515.131,"OS X",10_14_6,5f461dd6c139dd6b46c7596cbd57cd79
186,1,"""","""","""","""","""",sampler,232,198414,0.0-6.0-226.0,"""","""","""","""","""","""","""","""","""","""","""","""","2021-08-09 16:16:06",75.33.85.25,"Mozilla/5.0 (Macintosh; Intel Mac OS X 10_14_6) AppleWebKit/537.36 (KHTML, like Gecko) Chrome/92.0.4515.131 Safari/537.36",Macintosh,Chrome,92.0.4515.131,"OS X",10_14_6,5f461dd6c139dd6b46c7596cbd57cd79
186,1,"""","""","""","""","""",sampler,233,198414,0.0-6.0-227.0,"""","""","""","""","""","""","""","""","""","""","""","""","2021-08-09 16:16:06",75.33.85.25,"Mozilla/5.0 (Macintosh; Intel Mac OS X 10_14_6) AppleWebKit/537.36 (KHTML, like Gecko) Chrome/92.0.4515.131 Safari/537.36",Macintosh,Chrome,92.0.4515.131,"OS X",10_14_6,5f461dd6c139dd6b46c7596cbd57cd79
186,1,"""","""","""","""","""",sampler,234,198414,0.0-6.0-228.0,"""","""","""","""","""","""","""","""","""","""","""","""","2021-08-09 16:16:06",75.33.85.25,"Mozilla/5.0 (Macintosh; Intel Mac OS X 10_14_6) AppleWebKit/537.36 (KHTML, like Gecko) Chrome/92.0.4515.131 Safari/537.36",Macintosh,Chrome,92.0.4515.131,"OS X",10_14_6,5f461dd6c139dd6b46c7596cbd57cd79
186,1,"""","""","""","""","""",sampler,235,198415,0.0-6.0-229.0,"""","""","""","""","""","""","""","""","""","""","""","""","2021-08-09 16:16:06",75.33.85.25,"Mozilla/5.0 (Macintosh; Intel Mac OS X 10_14_6) AppleWebKit/537.36 (KHTML, like Gecko) Chrome/92.0.4515.131 Safari/537.36",Macintosh,Chrome,92.0.4515.131,"OS X",10_14_6,5f461dd6c139dd6b46c7596cbd57cd79
186,1,"""","""","""","""","""",sampler,236,198415,0.0-6.0-230.0,"""","""","""","""","""","""","""","""","""","""","""","""","2021-08-09 16:16:06",75.33.85.25,"Mozilla/5.0 (Macintosh; Intel Mac OS X 10_14_6) AppleWebKit/537.36 (KHTML, like Gecko) Chrome/92.0.4515.131 Safari/537.36",Macintosh,Chrome,92.0.4515.131,"OS X",10_14_6,5f461dd6c139dd6b46c7596cbd57cd79
186,1,"""","""","""","""","""",sampler,237,198415,0.0-6.0-231.0,"""","""","""","""","""","""","""","""","""","""","""","""","2021-08-09 16:16:06",75.33.85.25,"Mozilla/5.0 (Macintosh; Intel Mac OS X 10_14_6) AppleWebKit/537.36 (KHTML, like Gecko) Chrome/92.0.4515.131 Safari/537.36",Macintosh,Chrome,92.0.4515.131,"OS X",10_14_6,5f461dd6c139dd6b46c7596cbd57cd79
186,1,"""","""","""","""","""",sampler,238,198415,0.0-6.0-232.0,"""","""","""","""","""","""","""","""","""","""","""","""","2021-08-09 16:16:06",75.33.85.25,"Mozilla/5.0 (Macintosh; Intel Mac OS X 10_14_6) AppleWebKit/537.36 (KHTML, like Gecko) Chrome/92.0.4515.131 Safari/537.36",Macintosh,Chrome,92.0.4515.131,"OS X",10_14_6,5f461dd6c139dd6b46c7596cbd57cd79
186,1,"""","""","""","""","""",sampler,239,198415,0.0-6.0-233.0,"""","""","""","""","""","""","""","""","""","""","""","""","2021-08-09 16:16:06",75.33.85.25,"Mozilla/5.0 (Macintosh; Intel Mac OS X 10_14_6) AppleWebKit/537.36 (KHTML, like Gecko) Chrome/92.0.4515.131 Safari/537.36",Macintosh,Chrome,92.0.4515.131,"OS X",10_14_6,5f461dd6c139dd6b46c7596cbd57cd79
186,1,"""","""","""","""","""",sampler,240,198415,0.0-6.0-234.0,"""","""","""","""","""","""","""","""","""","""","""","""","2021-08-09 16:16:06",75.33.85.25,"Mozilla/5.0 (Macintosh; Intel Mac OS X 10_14_6) AppleWebKit/537.36 (KHTML, like Gecko) Chrome/92.0.4515.131 Safari/537.36",Macintosh,Chrome,92.0.4515.131,"OS X",10_14_6,5f461dd6c139dd6b46c7596cbd57cd79
186,1,"""","""","""","""","""",sampler,241,198415,0.0-6.0-235.0,"""","""","""","""","""","""","""","""","""","""","""","""","2021-08-09 16:16:06",75.33.85.25,"Mozilla/5.0 (Macintosh; Intel Mac OS X 10_14_6) AppleWebKit/537.36 (KHTML, like Gecko) Chrome/92.0.4515.131 Safari/537.36",Macintosh,Chrome,92.0.4515.131,"OS X",10_14_6,5f461dd6c139dd6b46c7596cbd57cd79
186,1,"""","""","""","""","""",sampler,242,198415,0.0-6.0-236.0,"""","""","""","""","""","""","""","""","""","""","""","""","2021-08-09 16:16:06",75.33.85.25,"Mozilla/5.0 (Macintosh; Intel Mac OS X 10_14_6) AppleWebKit/537.36 (KHTML, like Gecko) Chrome/92.0.4515.131 Safari/537.36",Macintosh,Chrome,92.0.4515.131,"OS X",10_14_6,5f461dd6c139dd6b46c7596cbd57cd79
186,1,"""","""","""","""","""",sampler,243,198415,0.0-6.0-237.0,"""","""","""","""","""","""","""","""","""","""","""","""","2021-08-09 16:16:06",75.33.85.25,"Mozilla/5.0 (Macintosh; Intel Mac OS X 10_14_6) AppleWebKit/537.36 (KHTML, like Gecko) Chrome/92.0.4515.131 Safari/537.36",Macintosh,Chrome,92.0.4515.131,"OS X",10_14_6,5f461dd6c139dd6b46c7596cbd57cd79
186,1,"""","""","""","""","""",sampler,244,198416,0.0-6.0-238.0,"""","""","""","""","""","""","""","""","""","""","""","""","2021-08-09 16:16:06",75.33.85.25,"Mozilla/5.0 (Macintosh; Intel Mac OS X 10_14_6) AppleWebKit/537.36 (KHTML, like Gecko) Chrome/92.0.4515.131 Safari/537.36",Macintosh,Chrome,92.0.4515.131,"OS X",10_14_6,5f461dd6c139dd6b46c7596cbd57cd79
186,1,"""","""","""","""","""",sampler,245,198416,0.0-6.0-239.0,"""","""","""","""","""","""","""","""","""","""","""","""","2021-08-09 16:16:06",75.33.85.25,"Mozilla/5.0 (Macintosh; Intel Mac OS X 10_14_6) AppleWebKit/537.36 (KHTML, like Gecko) Chrome/92.0.4515.131 Safari/537.36",Macintosh,Chrome,92.0.4515.131,"OS X",10_14_6,5f461dd6c139dd6b46c7596cbd57cd79
186,1,"""","""","""","""","""",sampler,246,198416,0.0-6.0-240.0,"""","""","""","""","""","""","""","""","""","""","""","""","2021-08-09 16:16:06",75.33.85.25,"Mozilla/5.0 (Macintosh; Intel Mac OS X 10_14_6) AppleWebKit/537.36 (KHTML, like Gecko) Chrome/92.0.4515.131 Safari/537.36",Macintosh,Chrome,92.0.4515.131,"OS X",10_14_6,5f461dd6c139dd6b46c7596cbd57cd79
186,1,"""","""","""","""","""",sampler,247,198416,0.0-6.0-241.0,"""","""","""","""","""","""","""","""","""","""","""","""","2021-08-09 16:16:06",75.33.85.25,"Mozilla/5.0 (Macintosh; Intel Mac OS X 10_14_6) AppleWebKit/537.36 (KHTML, like Gecko) Chrome/92.0.4515.131 Safari/537.36",Macintosh,Chrome,92.0.4515.131,"OS X",10_14_6,5f461dd6c139dd6b46c7596cbd57cd79
186,1,"""","""","""","""","""",sampler,248,198416,0.0-6.0-242.0,"""","""","""","""","""","""","""","""","""","""","""","""","2021-08-09 16:16:06",75.33.85.25,"Mozilla/5.0 (Macintosh; Intel Mac OS X 10_14_6) AppleWebKit/537.36 (KHTML, like Gecko) Chrome/92.0.4515.131 Safari/537.36",Macintosh,Chrome,92.0.4515.131,"OS X",10_14_6,5f461dd6c139dd6b46c7596cbd57cd79
186,1,"""","""","""","""","""",sampler,249,198416,0.0-6.0-243.0,"""","""","""","""","""","""","""","""","""","""","""","""","2021-08-09 16:16:06",75.33.85.25,"Mozilla/5.0 (Macintosh; Intel Mac OS X 10_14_6) AppleWebKit/537.36 (KHTML, like Gecko) Chrome/92.0.4515.131 Safari/537.36",Macintosh,Chrome,92.0.4515.131,"OS X",10_14_6,5f461dd6c139dd6b46c7596cbd57cd79
186,1,"""","""","""","""","""",sampler,250,198416,0.0-6.0-244.0,"""","""","""","""","""","""","""","""","""","""","""","""","2021-08-09 16:16:06",75.33.85.25,"Mozilla/5.0 (Macintosh; Intel Mac OS X 10_14_6) AppleWebKit/537.36 (KHTML, like Gecko) Chrome/92.0.4515.131 Safari/537.36",Macintosh,Chrome,92.0.4515.131,"OS X",10_14_6,5f461dd6c139dd6b46c7596cbd57cd79
186,1,"""","""","""","""","""",sampler,251,198416,0.0-6.0-245.0,"""","""","""","""","""","""","""","""","""","""","""","""","2021-08-09 16:16:06",75.33.85.25,"Mozilla/5.0 (Macintosh; Intel Mac OS X 10_14_6) AppleWebKit/537.36 (KHTML, like Gecko) Chrome/92.0.4515.131 Safari/537.36",Macintosh,Chrome,92.0.4515.131,"OS X",10_14_6,5f461dd6c139dd6b46c7596cbd57cd79
186,1,"""","""","""","""","""",sampler,252,198417,0.0-6.0-246.0,"""","""","""","""","""","""","""","""","""","""","""","""","2021-08-09 16:16:06",75.33.85.25,"Mozilla/5.0 (Macintosh; Intel Mac OS X 10_14_6) AppleWebKit/537.36 (KHTML, like Gecko) Chrome/92.0.4515.131 Safari/537.36",Macintosh,Chrome,92.0.4515.131,"OS X",10_14_6,5f461dd6c139dd6b46c7596cbd57cd79
186,1,"""","""","""","""","""",sampler,253,198417,0.0-6.0-247.0,"""","""","""","""","""","""","""","""","""","""","""","""","2021-08-09 16:16:06",75.33.85.25,"Mozilla/5.0 (Macintosh; Intel Mac OS X 10_14_6) AppleWebKit/537.36 (KHTML, like Gecko) Chrome/92.0.4515.131 Safari/537.36",Macintosh,Chrome,92.0.4515.131,"OS X",10_14_6,5f461dd6c139dd6b46c7596cbd57cd79
186,1,"""","""","""","""","""",sampler,254,198417,0.0-6.0-248.0,"""","""","""","""","""","""","""","""","""","""","""","""","2021-08-09 16:16:06",75.33.85.25,"Mozilla/5.0 (Macintosh; Intel Mac OS X 10_14_6) AppleWebKit/537.36 (KHTML, like Gecko) Chrome/92.0.4515.131 Safari/537.36",Macintosh,Chrome,92.0.4515.131,"OS X",10_14_6,5f461dd6c139dd6b46c7596cbd57cd79
186,1,"""","""","""","""","""",sampler,255,198417,0.0-6.0-249.0,"""","""","""","""","""","""","""","""","""","""","""","""","2021-08-09 16:16:06",75.33.85.25,"Mozilla/5.0 (Macintosh; Intel Mac OS X 10_14_6) AppleWebKit/537.36 (KHTML, like Gecko) Chrome/92.0.4515.131 Safari/537.36",Macintosh,Chrome,92.0.4515.131,"OS X",10_14_6,5f461dd6c139dd6b46c7596cbd57cd79
186,1,"""","""","""","""","""",sampler,256,198417,0.0-6.0-250.0,"""","""","""","""","""","""","""","""","""","""","""","""","2021-08-09 16:16:06",75.33.85.25,"Mozilla/5.0 (Macintosh; Intel Mac OS X 10_14_6) AppleWebKit/537.36 (KHTML, like Gecko) Chrome/92.0.4515.131 Safari/537.36",Macintosh,Chrome,92.0.4515.131,"OS X",10_14_6,5f461dd6c139dd6b46c7596cbd57cd79
186,1,"""","""","""","""","""",sampler,257,198417,0.0-6.0-251.0,"""","""","""","""","""","""","""","""","""","""","""","""","2021-08-09 16:16:06",75.33.85.25,"Mozilla/5.0 (Macintosh; Intel Mac OS X 10_14_6) AppleWebKit/537.36 (KHTML, like Gecko) Chrome/92.0.4515.131 Safari/537.36",Macintosh,Chrome,92.0.4515.131,"OS X",10_14_6,5f461dd6c139dd6b46c7596cbd57cd79
186,1,"""","""","""","""","""",sampler,258,198417,0.0-6.0-252.0,"""","""","""","""","""","""","""","""","""","""","""","""","2021-08-09 16:16:06",75.33.85.25,"Mozilla/5.0 (Macintosh; Intel Mac OS X 10_14_6) AppleWebKit/537.36 (KHTML, like Gecko) Chrome/92.0.4515.131 Safari/537.36",Macintosh,Chrome,92.0.4515.131,"OS X",10_14_6,5f461dd6c139dd6b46c7596cbd57cd79
186,1,"""","""","""","""","""",sampler,259,198417,0.0-6.0-253.0,"""","""","""","""","""","""","""","""","""","""","""","""","2021-08-09 16:16:06",75.33.85.25,"Mozilla/5.0 (Macintosh; Intel Mac OS X 10_14_6) AppleWebKit/537.36 (KHTML, like Gecko) Chrome/92.0.4515.131 Safari/537.36",Macintosh,Chrome,92.0.4515.131,"OS X",10_14_6,5f461dd6c139dd6b46c7596cbd57cd79
186,1,"""","""","""","""","""",sampler,260,198418,0.0-6.0-254.0,"""","""","""","""","""","""","""","""","""","""","""","""","2021-08-09 16:16:06",75.33.85.25,"Mozilla/5.0 (Macintosh; Intel Mac OS X 10_14_6) AppleWebKit/537.36 (KHTML, like Gecko) Chrome/92.0.4515.131 Safari/537.36",Macintosh,Chrome,92.0.4515.131,"OS X",10_14_6,5f461dd6c139dd6b46c7596cbd57cd79
186,1,"""","""","""","""","""",sampler,261,198418,0.0-6.0-255.0,"""","""","""","""","""","""","""","""","""","""","""","""","2021-08-09 16:16:06",75.33.85.25,"Mozilla/5.0 (Macintosh; Intel Mac OS X 10_14_6) AppleWebKit/537.36 (KHTML, like Gecko) Chrome/92.0.4515.131 Safari/537.36",Macintosh,Chrome,92.0.4515.131,"OS X",10_14_6,5f461dd6c139dd6b46c7596cbd57cd79
186,1,"""","""","""","""","""",sampler,262,198418,0.0-6.0-256.0,"""","""","""","""","""","""","""","""","""","""","""","""","2021-08-09 16:16:06",75.33.85.25,"Mozilla/5.0 (Macintosh; Intel Mac OS X 10_14_6) AppleWebKit/537.36 (KHTML, like Gecko) Chrome/92.0.4515.131 Safari/537.36",Macintosh,Chrome,92.0.4515.131,"OS X",10_14_6,5f461dd6c139dd6b46c7596cbd57cd79
186,1,"""","""","""","""","""",sampler,263,198418,0.0-6.0-257.0,"""","""","""","""","""","""","""","""","""","""","""","""","2021-08-09 16:16:06",75.33.85.25,"Mozilla/5.0 (Macintosh; Intel Mac OS X 10_14_6) AppleWebKit/537.36 (KHTML, like Gecko) Chrome/92.0.4515.131 Safari/537.36",Macintosh,Chrome,92.0.4515.131,"OS X",10_14_6,5f461dd6c139dd6b46c7596cbd57cd79
186,1,"""","""","""","""","""",sampler,264,198418,0.0-6.0-258.0,"""","""","""","""","""","""","""","""","""","""","""","""","2021-08-09 16:16:06",75.33.85.25,"Mozilla/5.0 (Macintosh; Intel Mac OS X 10_14_6) AppleWebKit/537.36 (KHTML, like Gecko) Chrome/92.0.4515.131 Safari/537.36",Macintosh,Chrome,92.0.4515.131,"OS X",10_14_6,5f461dd6c139dd6b46c7596cbd57cd79
186,1,"""","""","""","""","""",sampler,265,198418,0.0-6.0-259.0,"""","""","""","""","""","""","""","""","""","""","""","""","2021-08-09 16:16:06",75.33.85.25,"Mozilla/5.0 (Macintosh; Intel Mac OS X 10_14_6) AppleWebKit/537.36 (KHTML, like Gecko) Chrome/92.0.4515.131 Safari/537.36",Macintosh,Chrome,92.0.4515.131,"OS X",10_14_6,5f461dd6c139dd6b46c7596cbd57cd79
186,1,"""","""","""","""","""",sampler,266,198419,0.0-6.0-260.0,"""","""","""","""","""","""","""","""","""","""","""","""","2021-08-09 16:16:06",75.33.85.25,"Mozilla/5.0 (Macintosh; Intel Mac OS X 10_14_6) AppleWebKit/537.36 (KHTML, like Gecko) Chrome/92.0.4515.131 Safari/537.36",Macintosh,Chrome,92.0.4515.131,"OS X",10_14_6,5f461dd6c139dd6b46c7596cbd57cd79
186,1,"""","""","""","""","""",sampler,267,198419,0.0-6.0-261.0,"""","""","""","""","""","""","""","""","""","""","""","""","2021-08-09 16:16:06",75.33.85.25,"Mozilla/5.0 (Macintosh; Intel Mac OS X 10_14_6) AppleWebKit/537.36 (KHTML, like Gecko) Chrome/92.0.4515.131 Safari/537.36",Macintosh,Chrome,92.0.4515.131,"OS X",10_14_6,5f461dd6c139dd6b46c7596cbd57cd79
186,1,"""","""","""","""","""",sampler,268,198419,0.0-6.0-262.0,"""","""","""","""","""","""","""","""","""","""","""","""","2021-08-09 16:16:06",75.33.85.25,"Mozilla/5.0 (Macintosh; Intel Mac OS X 10_14_6) AppleWebKit/537.36 (KHTML, like Gecko) Chrome/92.0.4515.131 Safari/537.36",Macintosh,Chrome,92.0.4515.131,"OS X",10_14_6,5f461dd6c139dd6b46c7596cbd57cd79
186,1,"""","""","""","""","""",sampler,269,198419,0.0-6.0-263.0,"""","""","""","""","""","""","""","""","""","""","""","""","2021-08-09 16:16:06",75.33.85.25,"Mozilla/5.0 (Macintosh; Intel Mac OS X 10_14_6) AppleWebKit/537.36 (KHTML, like Gecko) Chrome/92.0.4515.131 Safari/537.36",Macintosh,Chrome,92.0.4515.131,"OS X",10_14_6,5f461dd6c139dd6b46c7596cbd57cd79
186,1,"""","""","""","""","""",sampler,270,198419,0.0-6.0-264.0,"""","""","""","""","""","""","""","""","""","""","""","""","2021-08-09 16:16:06",75.33.85.25,"Mozilla/5.0 (Macintosh; Intel Mac OS X 10_14_6) AppleWebKit/537.36 (KHTML, like Gecko) Chrome/92.0.4515.131 Safari/537.36",Macintosh,Chrome,92.0.4515.131,"OS X",10_14_6,5f461dd6c139dd6b46c7596cbd57cd79
186,1,"""","""","""","""","""",sampler,271,198419,0.0-6.0-265.0,"""","""","""","""","""","""","""","""","""","""","""","""","2021-08-09 16:16:06",75.33.85.25,"Mozilla/5.0 (Macintosh; Intel Mac OS X 10_14_6) AppleWebKit/537.36 (KHTML, like Gecko) Chrome/92.0.4515.131 Safari/537.36",Macintosh,Chrome,92.0.4515.131,"OS X",10_14_6,5f461dd6c139dd6b46c7596cbd57cd79
186,1,"""","""","""","""","""",sampler,272,198419,0.0-6.0-266.0,"""","""","""","""","""","""","""","""","""","""","""","""","2021-08-09 16:16:06",75.33.85.25,"Mozilla/5.0 (Macintosh; Intel Mac OS X 10_14_6) AppleWebKit/537.36 (KHTML, like Gecko) Chrome/92.0.4515.131 Safari/537.36",Macintosh,Chrome,92.0.4515.131,"OS X",10_14_6,5f461dd6c139dd6b46c7596cbd57cd79
186,1,"""","""","""","""","""",sampler,273,198419,0.0-6.0-267.0,"""","""","""","""","""","""","""","""","""","""","""","""","2021-08-09 16:16:06",75.33.85.25,"Mozilla/5.0 (Macintosh; Intel Mac OS X 10_14_6) AppleWebKit/537.36 (KHTML, like Gecko) Chrome/92.0.4515.131 Safari/537.36",Macintosh,Chrome,92.0.4515.131,"OS X",10_14_6,5f461dd6c139dd6b46c7596cbd57cd79
