run_id,condition,success,timeout,failed_images,failed_audio,failed_video,trial_type,trial_index,time_elapsed,internal_node_id,rt,stimulus,key_press,responses,view_history,correct,image_click,points,sd,points2,total_earn,button_pressed,recorded_at,ip,user_agent,device,browser,browser_version,platform,platform_version,source_code_version
215,1,true,false,"""","""","""",preload,0,939,0.0-0.0,"""","""","""","""","""","""","""","""","""","""","""","""","2021-08-15 21:29:11",77.54.254.9,"Mozilla/5.0 (Windows NT 10.0; Win64; x64) AppleWebKit/537.36 (KHTML, like Gecko) Chrome/92.0.4515.131 Safari/537.36",WebKit,Chrome,92.0.4515.131,Windows,10.0,5f461dd6c139dd6b46c7596cbd57cd79
215,1,"""","""","""","""","""",html-keyboard-response,1,27827,0.0-1.0,26881,"<font size=15>Welcome to our experiment!</font><br><br><br><i> Press <b>space bar</b> to begin.</i>",32,"""","""","""","""","""","""","""","""","""","2021-08-15 21:29:11",77.54.254.9,"Mozilla/5.0 (Windows NT 10.0; Win64; x64) AppleWebKit/537.36 (KHTML, like Gecko) Chrome/92.0.4515.131 Safari/537.36",WebKit,Chrome,92.0.4515.131,Windows,10.0,5f461dd6c139dd6b46c7596cbd57cd79
215,1,"""","""","""","""","""",survey-multi-choice,2,70446,0.0-2.0,42616,"""","""","{""Q0"":""Yes"",""Q1"":""Yes"",""Q2"":""Yes"",""Q3"":""Yes""}","""","""","""","""","""","""","""","""","2021-08-15 21:29:11",77.54.254.9,"Mozilla/5.0 (Windows NT 10.0; Win64; x64) AppleWebKit/537.36 (KHTML, like Gecko) Chrome/92.0.4515.131 Safari/537.36",WebKit,Chrome,92.0.4515.131,Windows,10.0,5f461dd6c139dd6b46c7596cbd57cd79
215,1,"""","""","""","""","""",survey-html-form,3,99622,0.0-3.0,29170.5,"""","""","{""gender"":""male"",""age"":""18"",""hand"":""right"",""mail"":""610d31377289ce12d4b62091""}","""","""","""","""","""","""","""","""","2021-08-15 21:29:11",77.54.254.9,"Mozilla/5.0 (Windows NT 10.0; Win64; x64) AppleWebKit/537.36 (KHTML, like Gecko) Chrome/92.0.4515.131 Safari/537.36",WebKit,Chrome,92.0.4515.131,Windows,10.0,5f461dd6c139dd6b46c7596cbd57cd79
215,1,true,"""","""","""","""",fullscreen,4,107636,0.0-4.0,"""","""","""","""","""","""","""","""","""","""","""","""","2021-08-15 21:29:11",77.54.254.9,"Mozilla/5.0 (Windows NT 10.0; Win64; x64) AppleWebKit/537.36 (KHTML, like Gecko) Chrome/92.0.4515.131 Safari/537.36",WebKit,Chrome,92.0.4515.131,Windows,10.0,5f461dd6c139dd6b46c7596cbd57cd79
215,1,"""","""","""","""","""",multikey-instructions,5,394452,0.0-5.0,286812,"""","""","""","[{""page_index"":0,""viewing_time"":63462},{""page_index"":1,""viewing_time"":31095},{""page_index"":2,""viewing_time"":13195},{""page_index"":3,""viewing_time"":17211},{""page_index"":4,""viewing_time"":13172},{""page_index"":5,""viewing_time"":27504},{""page_index"":6,""viewing_time"":8633},{""page_index"":7,""viewing_time"":10916},{""page_index"":8,""viewing_time"":37752},{""page_index"":9,""viewing_time"":18515},{""page_index"":10,""viewing_time"":32136},{""page_index"":11,""viewing_time"":13220}]","""","""","""","""","""","""","""","2021-08-15 21:29:11",77.54.254.9,"Mozilla/5.0 (Windows NT 10.0; Win64; x64) AppleWebKit/537.36 (KHTML, like Gecko) Chrome/92.0.4515.131 Safari/537.36",WebKit,Chrome,92.0.4515.131,Windows,10.0,5f461dd6c139dd6b46c7596cbd57cd79
215,1,"""","""","""","""","""",sampler,6,431326,0.0-6.0-0.0,36462,img/Cobalt.png,"""","""","""",false,-1,8.143035988603987,10,"""","""","""","2021-08-15 21:29:11",77.54.254.9,"Mozilla/5.0 (Windows NT 10.0; Win64; x64) AppleWebKit/537.36 (KHTML, like Gecko) Chrome/92.0.4515.131 Safari/537.36",WebKit,Chrome,92.0.4515.131,Windows,10.0,5f461dd6c139dd6b46c7596cbd57cd79
215,1,"""","""","""","""","""",sampler,7,432794,0.0-6.0-1.0,1061,img/Cobalt.png,"""","""","""",false,-1,9.637777407260241,10,"""","""","""","2021-08-15 21:29:11",77.54.254.9,"Mozilla/5.0 (Windows NT 10.0; Win64; x64) AppleWebKit/537.36 (KHTML, like Gecko) Chrome/92.0.4515.131 Safari/537.36",WebKit,Chrome,92.0.4515.131,Windows,10.0,5f461dd6c139dd6b46c7596cbd57cd79
215,1,"""","""","""","""","""",sampler,8,433886,0.0-6.0-2.0,682,img/Cobalt.png,"""","""","""",false,-1,4.68509061157059,10,"""","""","""","2021-08-15 21:29:11",77.54.254.9,"Mozilla/5.0 (Windows NT 10.0; Win64; x64) AppleWebKit/537.36 (KHTML, like Gecko) Chrome/92.0.4515.131 Safari/537.36",WebKit,Chrome,92.0.4515.131,Windows,10.0,5f461dd6c139dd6b46c7596cbd57cd79
215,1,"""","""","""","""","""",sampler,9,434714,0.0-6.0-3.0,422,img/Cobalt.png,"""","""","""",false,-1,-13.893206940765118,10,"""","""","""","2021-08-15 21:29:11",77.54.254.9,"Mozilla/5.0 (Windows NT 10.0; Win64; x64) AppleWebKit/537.36 (KHTML, like Gecko) Chrome/92.0.4515.131 Safari/537.36",WebKit,Chrome,92.0.4515.131,Windows,10.0,5f461dd6c139dd6b46c7596cbd57cd79
215,1,"""","""","""","""","""",sampler,10,435510,0.0-6.0-4.0,393,img/Cobalt.png,"""","""","""",false,-1,10.64598447789626,10,"""","""","""","2021-08-15 21:29:11",77.54.254.9,"Mozilla/5.0 (Windows NT 10.0; Win64; x64) AppleWebKit/537.36 (KHTML, like Gecko) Chrome/92.0.4515.131 Safari/537.36",WebKit,Chrome,92.0.4515.131,Windows,10.0,5f461dd6c139dd6b46c7596cbd57cd79
215,1,"""","""","""","""","""",sampler,11,436294,0.0-6.0-5.0,381,img/Cobalt.png,"""","""","""",false,-1,-9.78086163922998,10,"""","""","""","2021-08-15 21:29:11",77.54.254.9,"Mozilla/5.0 (Windows NT 10.0; Win64; x64) AppleWebKit/537.36 (KHTML, like Gecko) Chrome/92.0.4515.131 Safari/537.36",WebKit,Chrome,92.0.4515.131,Windows,10.0,5f461dd6c139dd6b46c7596cbd57cd79
215,1,"""","""","""","""","""",sampler,12,436906,0.0-6.0-6.0,207,img/Cobalt.png,"""","""","""",false,-1,1.7845868467097494,10,"""","""","""","2021-08-15 21:29:11",77.54.254.9,"Mozilla/5.0 (Windows NT 10.0; Win64; x64) AppleWebKit/537.36 (KHTML, like Gecko) Chrome/92.0.4515.131 Safari/537.36",WebKit,Chrome,92.0.4515.131,Windows,10.0,5f461dd6c139dd6b46c7596cbd57cd79
215,1,"""","""","""","""","""",sampler,13,437510,0.0-6.0-7.0,198,img/Cobalt.png,"""","""","""",false,-1,11.703003216129785,10,"""","""","""","2021-08-15 21:29:11",77.54.254.9,"Mozilla/5.0 (Windows NT 10.0; Win64; x64) AppleWebKit/537.36 (KHTML, like Gecko) Chrome/92.0.4515.131 Safari/537.36",WebKit,Chrome,92.0.4515.131,Windows,10.0,5f461dd6c139dd6b46c7596cbd57cd79
215,1,"""","""","""","""","""",sampler,14,438077,0.0-6.0-8.0,163,img/Cobalt.png,"""","""","""",false,-1,5.6571432879481796,10,"""","""","""","2021-08-15 21:29:11",77.54.254.9,"Mozilla/5.0 (Windows NT 10.0; Win64; x64) AppleWebKit/537.36 (KHTML, like Gecko) Chrome/92.0.4515.131 Safari/537.36",WebKit,Chrome,92.0.4515.131,Windows,10.0,5f461dd6c139dd6b46c7596cbd57cd79
215,1,"""","""","""","""","""",sampler,15,438686,0.0-6.0-9.0,206,img/Cobalt.png,"""","""","""",false,-1,7.699405796981238,10,"""","""","""","2021-08-15 21:29:11",77.54.254.9,"Mozilla/5.0 (Windows NT 10.0; Win64; x64) AppleWebKit/537.36 (KHTML, like Gecko) Chrome/92.0.4515.131 Safari/537.36",WebKit,Chrome,92.0.4515.131,Windows,10.0,5f461dd6c139dd6b46c7596cbd57cd79
215,1,"""","""","""","""","""",sampler,16,439216,0.0-6.0-10.0,127,img/Cobalt.png,"""","""","""",false,-1,13.994630278901827,10,"""","""","""","2021-08-15 21:29:11",77.54.254.9,"Mozilla/5.0 (Windows NT 10.0; Win64; x64) AppleWebKit/537.36 (KHTML, like Gecko) Chrome/92.0.4515.131 Safari/537.36",WebKit,Chrome,92.0.4515.131,Windows,10.0,5f461dd6c139dd6b46c7596cbd57cd79
215,1,"""","""","""","""","""",sampler,17,439802,0.0-6.0-11.0,183,img/Cobalt.png,"""","""","""",false,-1,3.0782129252336365,10,"""","""","""","2021-08-15 21:29:11",77.54.254.9,"Mozilla/5.0 (Windows NT 10.0; Win64; x64) AppleWebKit/537.36 (KHTML, like Gecko) Chrome/92.0.4515.131 Safari/537.36",WebKit,Chrome,92.0.4515.131,Windows,10.0,5f461dd6c139dd6b46c7596cbd57cd79
215,1,"""","""","""","""","""",sampler,18,440280,0.0-6.0-12.0,75,img/Cobalt.png,"""","""","""",false,-1,-4.879482569859796,10,"""","""","""","2021-08-15 21:29:11",77.54.254.9,"Mozilla/5.0 (Windows NT 10.0; Win64; x64) AppleWebKit/537.36 (KHTML, like Gecko) Chrome/92.0.4515.131 Safari/537.36",WebKit,Chrome,92.0.4515.131,Windows,10.0,5f461dd6c139dd6b46c7596cbd57cd79
215,1,"""","""","""","""","""",sampler,19,440883,0.0-6.0-13.0,200,img/Cobalt.png,"""","""","""",false,-1,15.869642607623623,10,"""","""","""","2021-08-15 21:29:11",77.54.254.9,"Mozilla/5.0 (Windows NT 10.0; Win64; x64) AppleWebKit/537.36 (KHTML, like Gecko) Chrome/92.0.4515.131 Safari/537.36",WebKit,Chrome,92.0.4515.131,Windows,10.0,5f461dd6c139dd6b46c7596cbd57cd79
215,1,"""","""","""","""","""",sampler,20,441442,0.0-6.0-14.0,157,img/Cobalt.png,"""","""","""",false,-1,23.04506439119806,10,"""","""","""","2021-08-15 21:29:11",77.54.254.9,"Mozilla/5.0 (Windows NT 10.0; Win64; x64) AppleWebKit/537.36 (KHTML, like Gecko) Chrome/92.0.4515.131 Safari/537.36",WebKit,Chrome,92.0.4515.131,Windows,10.0,5f461dd6c139dd6b46c7596cbd57cd79
215,1,"""","""","""","""","""",sampler,21,441917,0.0-6.0-15.0,72,img/Cobalt.png,"""","""","""",false,-1,1.8151903377049203,10,"""","""","""","2021-08-15 21:29:11",77.54.254.9,"Mozilla/5.0 (Windows NT 10.0; Win64; x64) AppleWebKit/537.36 (KHTML, like Gecko) Chrome/92.0.4515.131 Safari/537.36",WebKit,Chrome,92.0.4515.131,Windows,10.0,5f461dd6c139dd6b46c7596cbd57cd79
215,1,"""","""","""","""","""",sampler,22,442415,0.0-6.0-16.0,95,img/Cobalt.png,"""","""","""",false,-1,-8.214600072511121,10,"""","""","""","2021-08-15 21:29:11",77.54.254.9,"Mozilla/5.0 (Windows NT 10.0; Win64; x64) AppleWebKit/537.36 (KHTML, like Gecko) Chrome/92.0.4515.131 Safari/537.36",WebKit,Chrome,92.0.4515.131,Windows,10.0,5f461dd6c139dd6b46c7596cbd57cd79
215,1,"""","""","""","""","""",sampler,23,442910,0.0-6.0-17.0,91,img/Cobalt.png,"""","""","""",false,-1,-7.660123999838595,10,"""","""","""","2021-08-15 21:29:11",77.54.254.9,"Mozilla/5.0 (Windows NT 10.0; Win64; x64) AppleWebKit/537.36 (KHTML, like Gecko) Chrome/92.0.4515.131 Safari/537.36",WebKit,Chrome,92.0.4515.131,Windows,10.0,5f461dd6c139dd6b46c7596cbd57cd79
215,1,"""","""","""","""","""",sampler,24,443437,0.0-6.0-18.0,124,img/Cobalt.png,"""","""","""",false,-1,8.482842271252261,10,"""","""","""","2021-08-15 21:29:11",77.54.254.9,"Mozilla/5.0 (Windows NT 10.0; Win64; x64) AppleWebKit/537.36 (KHTML, like Gecko) Chrome/92.0.4515.131 Safari/537.36",WebKit,Chrome,92.0.4515.131,Windows,10.0,5f461dd6c139dd6b46c7596cbd57cd79
215,1,"""","""","""","""","""",sampler,25,444518,0.0-6.0-19.0,678,img/Cobalt.png,"""","""","""",false,-1,3.862313047594104,10,"""","""","""","2021-08-15 21:29:11",77.54.254.9,"Mozilla/5.0 (Windows NT 10.0; Win64; x64) AppleWebKit/537.36 (KHTML, like Gecko) Chrome/92.0.4515.131 Safari/537.36",WebKit,Chrome,92.0.4515.131,Windows,10.0,5f461dd6c139dd6b46c7596cbd57cd79
215,1,"""","""","""","""","""",sampler,26,444518,0.0-6.0-20.0,"""","""","""","""","""","""","""","""","""","""","""","""","2021-08-15 21:29:11",77.54.254.9,"Mozilla/5.0 (Windows NT 10.0; Win64; x64) AppleWebKit/537.36 (KHTML, like Gecko) Chrome/92.0.4515.131 Safari/537.36",WebKit,Chrome,92.0.4515.131,Windows,10.0,5f461dd6c139dd6b46c7596cbd57cd79
215,1,"""","""","""","""","""",sampler,27,444518,0.0-6.0-21.0,"""","""","""","""","""","""","""","""","""","""","""","""","2021-08-15 21:29:11",77.54.254.9,"Mozilla/5.0 (Windows NT 10.0; Win64; x64) AppleWebKit/537.36 (KHTML, like Gecko) Chrome/92.0.4515.131 Safari/537.36",WebKit,Chrome,92.0.4515.131,Windows,10.0,5f461dd6c139dd6b46c7596cbd57cd79
215,1,"""","""","""","""","""",sampler,28,444519,0.0-6.0-22.0,"""","""","""","""","""","""","""","""","""","""","""","""","2021-08-15 21:29:11",77.54.254.9,"Mozilla/5.0 (Windows NT 10.0; Win64; x64) AppleWebKit/537.36 (KHTML, like Gecko) Chrome/92.0.4515.131 Safari/537.36",WebKit,Chrome,92.0.4515.131,Windows,10.0,5f461dd6c139dd6b46c7596cbd57cd79
215,1,"""","""","""","""","""",sampler,29,444519,0.0-6.0-23.0,"""","""","""","""","""","""","""","""","""","""","""","""","2021-08-15 21:29:11",77.54.254.9,"Mozilla/5.0 (Windows NT 10.0; Win64; x64) AppleWebKit/537.36 (KHTML, like Gecko) Chrome/92.0.4515.131 Safari/537.36",WebKit,Chrome,92.0.4515.131,Windows,10.0,5f461dd6c139dd6b46c7596cbd57cd79
215,1,"""","""","""","""","""",sampler,30,444519,0.0-6.0-24.0,"""","""","""","""","""","""","""","""","""","""","""","""","2021-08-15 21:29:11",77.54.254.9,"Mozilla/5.0 (Windows NT 10.0; Win64; x64) AppleWebKit/537.36 (KHTML, like Gecko) Chrome/92.0.4515.131 Safari/537.36",WebKit,Chrome,92.0.4515.131,Windows,10.0,5f461dd6c139dd6b46c7596cbd57cd79
215,1,"""","""","""","""","""",sampler,31,444519,0.0-6.0-25.0,"""","""","""","""","""","""","""","""","""","""","""","""","2021-08-15 21:29:11",77.54.254.9,"Mozilla/5.0 (Windows NT 10.0; Win64; x64) AppleWebKit/537.36 (KHTML, like Gecko) Chrome/92.0.4515.131 Safari/537.36",WebKit,Chrome,92.0.4515.131,Windows,10.0,5f461dd6c139dd6b46c7596cbd57cd79
215,1,"""","""","""","""","""",sampler,32,444519,0.0-6.0-26.0,"""","""","""","""","""","""","""","""","""","""","""","""","2021-08-15 21:29:11",77.54.254.9,"Mozilla/5.0 (Windows NT 10.0; Win64; x64) AppleWebKit/537.36 (KHTML, like Gecko) Chrome/92.0.4515.131 Safari/537.36",WebKit,Chrome,92.0.4515.131,Windows,10.0,5f461dd6c139dd6b46c7596cbd57cd79
215,1,"""","""","""","""","""",sampler,33,444519,0.0-6.0-27.0,"""","""","""","""","""","""","""","""","""","""","""","""","2021-08-15 21:29:11",77.54.254.9,"Mozilla/5.0 (Windows NT 10.0; Win64; x64) AppleWebKit/537.36 (KHTML, like Gecko) Chrome/92.0.4515.131 Safari/537.36",WebKit,Chrome,92.0.4515.131,Windows,10.0,5f461dd6c139dd6b46c7596cbd57cd79
215,1,"""","""","""","""","""",sampler,34,444519,0.0-6.0-28.0,"""","""","""","""","""","""","""","""","""","""","""","""","2021-08-15 21:29:11",77.54.254.9,"Mozilla/5.0 (Windows NT 10.0; Win64; x64) AppleWebKit/537.36 (KHTML, like Gecko) Chrome/92.0.4515.131 Safari/537.36",WebKit,Chrome,92.0.4515.131,Windows,10.0,5f461dd6c139dd6b46c7596cbd57cd79
215,1,"""","""","""","""","""",sampler,35,444519,0.0-6.0-29.0,"""","""","""","""","""","""","""","""","""","""","""","""","2021-08-15 21:29:11",77.54.254.9,"Mozilla/5.0 (Windows NT 10.0; Win64; x64) AppleWebKit/537.36 (KHTML, like Gecko) Chrome/92.0.4515.131 Safari/537.36",WebKit,Chrome,92.0.4515.131,Windows,10.0,5f461dd6c139dd6b46c7596cbd57cd79
215,1,"""","""","""","""","""",sampler,36,444519,0.0-6.0-30.0,"""","""","""","""","""","""","""","""","""","""","""","""","2021-08-15 21:29:11",77.54.254.9,"Mozilla/5.0 (Windows NT 10.0; Win64; x64) AppleWebKit/537.36 (KHTML, like Gecko) Chrome/92.0.4515.131 Safari/537.36",WebKit,Chrome,92.0.4515.131,Windows,10.0,5f461dd6c139dd6b46c7596cbd57cd79
215,1,"""","""","""","""","""",sampler,37,444519,0.0-6.0-31.0,"""","""","""","""","""","""","""","""","""","""","""","""","2021-08-15 21:29:11",77.54.254.9,"Mozilla/5.0 (Windows NT 10.0; Win64; x64) AppleWebKit/537.36 (KHTML, like Gecko) Chrome/92.0.4515.131 Safari/537.36",WebKit,Chrome,92.0.4515.131,Windows,10.0,5f461dd6c139dd6b46c7596cbd57cd79
215,1,"""","""","""","""","""",sampler,38,444520,0.0-6.0-32.0,"""","""","""","""","""","""","""","""","""","""","""","""","2021-08-15 21:29:11",77.54.254.9,"Mozilla/5.0 (Windows NT 10.0; Win64; x64) AppleWebKit/537.36 (KHTML, like Gecko) Chrome/92.0.4515.131 Safari/537.36",WebKit,Chrome,92.0.4515.131,Windows,10.0,5f461dd6c139dd6b46c7596cbd57cd79
215,1,"""","""","""","""","""",sampler,39,444520,0.0-6.0-33.0,"""","""","""","""","""","""","""","""","""","""","""","""","2021-08-15 21:29:11",77.54.254.9,"Mozilla/5.0 (Windows NT 10.0; Win64; x64) AppleWebKit/537.36 (KHTML, like Gecko) Chrome/92.0.4515.131 Safari/537.36",WebKit,Chrome,92.0.4515.131,Windows,10.0,5f461dd6c139dd6b46c7596cbd57cd79
215,1,"""","""","""","""","""",sampler,40,444520,0.0-6.0-34.0,"""","""","""","""","""","""","""","""","""","""","""","""","2021-08-15 21:29:11",77.54.254.9,"Mozilla/5.0 (Windows NT 10.0; Win64; x64) AppleWebKit/537.36 (KHTML, like Gecko) Chrome/92.0.4515.131 Safari/537.36",WebKit,Chrome,92.0.4515.131,Windows,10.0,5f461dd6c139dd6b46c7596cbd57cd79
215,1,"""","""","""","""","""",sampler,41,444520,0.0-6.0-35.0,"""","""","""","""","""","""","""","""","""","""","""","""","2021-08-15 21:29:11",77.54.254.9,"Mozilla/5.0 (Windows NT 10.0; Win64; x64) AppleWebKit/537.36 (KHTML, like Gecko) Chrome/92.0.4515.131 Safari/537.36",WebKit,Chrome,92.0.4515.131,Windows,10.0,5f461dd6c139dd6b46c7596cbd57cd79
215,1,"""","""","""","""","""",sampler,42,444520,0.0-6.0-36.0,"""","""","""","""","""","""","""","""","""","""","""","""","2021-08-15 21:29:11",77.54.254.9,"Mozilla/5.0 (Windows NT 10.0; Win64; x64) AppleWebKit/537.36 (KHTML, like Gecko) Chrome/92.0.4515.131 Safari/537.36",WebKit,Chrome,92.0.4515.131,Windows,10.0,5f461dd6c139dd6b46c7596cbd57cd79
215,1,"""","""","""","""","""",sampler,43,444520,0.0-6.0-37.0,"""","""","""","""","""","""","""","""","""","""","""","""","2021-08-15 21:29:11",77.54.254.9,"Mozilla/5.0 (Windows NT 10.0; Win64; x64) AppleWebKit/537.36 (KHTML, like Gecko) Chrome/92.0.4515.131 Safari/537.36",WebKit,Chrome,92.0.4515.131,Windows,10.0,5f461dd6c139dd6b46c7596cbd57cd79
215,1,"""","""","""","""","""",sampler,44,444520,0.0-6.0-38.0,"""","""","""","""","""","""","""","""","""","""","""","""","2021-08-15 21:29:11",77.54.254.9,"Mozilla/5.0 (Windows NT 10.0; Win64; x64) AppleWebKit/537.36 (KHTML, like Gecko) Chrome/92.0.4515.131 Safari/537.36",WebKit,Chrome,92.0.4515.131,Windows,10.0,5f461dd6c139dd6b46c7596cbd57cd79
215,1,"""","""","""","""","""",sampler,45,444520,0.0-6.0-39.0,"""","""","""","""","""","""","""","""","""","""","""","""","2021-08-15 21:29:11",77.54.254.9,"Mozilla/5.0 (Windows NT 10.0; Win64; x64) AppleWebKit/537.36 (KHTML, like Gecko) Chrome/92.0.4515.131 Safari/537.36",WebKit,Chrome,92.0.4515.131,Windows,10.0,5f461dd6c139dd6b46c7596cbd57cd79
215,1,"""","""","""","""","""",sampler,46,444520,0.0-6.0-40.0,"""","""","""","""","""","""","""","""","""","""","""","""","2021-08-15 21:29:11",77.54.254.9,"Mozilla/5.0 (Windows NT 10.0; Win64; x64) AppleWebKit/537.36 (KHTML, like Gecko) Chrome/92.0.4515.131 Safari/537.36",WebKit,Chrome,92.0.4515.131,Windows,10.0,5f461dd6c139dd6b46c7596cbd57cd79
215,1,"""","""","""","""","""",sampler,47,444520,0.0-6.0-41.0,"""","""","""","""","""","""","""","""","""","""","""","""","2021-08-15 21:29:11",77.54.254.9,"Mozilla/5.0 (Windows NT 10.0; Win64; x64) AppleWebKit/537.36 (KHTML, like Gecko) Chrome/92.0.4515.131 Safari/537.36",WebKit,Chrome,92.0.4515.131,Windows,10.0,5f461dd6c139dd6b46c7596cbd57cd79
215,1,"""","""","""","""","""",sampler,48,444521,0.0-6.0-42.0,"""","""","""","""","""","""","""","""","""","""","""","""","2021-08-15 21:29:11",77.54.254.9,"Mozilla/5.0 (Windows NT 10.0; Win64; x64) AppleWebKit/537.36 (KHTML, like Gecko) Chrome/92.0.4515.131 Safari/537.36",WebKit,Chrome,92.0.4515.131,Windows,10.0,5f461dd6c139dd6b46c7596cbd57cd79
215,1,"""","""","""","""","""",sampler,49,444521,0.0-6.0-43.0,"""","""","""","""","""","""","""","""","""","""","""","""","2021-08-15 21:29:11",77.54.254.9,"Mozilla/5.0 (Windows NT 10.0; Win64; x64) AppleWebKit/537.36 (KHTML, like Gecko) Chrome/92.0.4515.131 Safari/537.36",WebKit,Chrome,92.0.4515.131,Windows,10.0,5f461dd6c139dd6b46c7596cbd57cd79
215,1,"""","""","""","""","""",sampler,50,444521,0.0-6.0-44.0,"""","""","""","""","""","""","""","""","""","""","""","""","2021-08-15 21:29:11",77.54.254.9,"Mozilla/5.0 (Windows NT 10.0; Win64; x64) AppleWebKit/537.36 (KHTML, like Gecko) Chrome/92.0.4515.131 Safari/537.36",WebKit,Chrome,92.0.4515.131,Windows,10.0,5f461dd6c139dd6b46c7596cbd57cd79
215,1,"""","""","""","""","""",sampler,51,444521,0.0-6.0-45.0,"""","""","""","""","""","""","""","""","""","""","""","""","2021-08-15 21:29:11",77.54.254.9,"Mozilla/5.0 (Windows NT 10.0; Win64; x64) AppleWebKit/537.36 (KHTML, like Gecko) Chrome/92.0.4515.131 Safari/537.36",WebKit,Chrome,92.0.4515.131,Windows,10.0,5f461dd6c139dd6b46c7596cbd57cd79
215,1,"""","""","""","""","""",sampler,52,444521,0.0-6.0-46.0,"""","""","""","""","""","""","""","""","""","""","""","""","2021-08-15 21:29:11",77.54.254.9,"Mozilla/5.0 (Windows NT 10.0; Win64; x64) AppleWebKit/537.36 (KHTML, like Gecko) Chrome/92.0.4515.131 Safari/537.36",WebKit,Chrome,92.0.4515.131,Windows,10.0,5f461dd6c139dd6b46c7596cbd57cd79
215,1,"""","""","""","""","""",sampler,53,444521,0.0-6.0-47.0,"""","""","""","""","""","""","""","""","""","""","""","""","2021-08-15 21:29:11",77.54.254.9,"Mozilla/5.0 (Windows NT 10.0; Win64; x64) AppleWebKit/537.36 (KHTML, like Gecko) Chrome/92.0.4515.131 Safari/537.36",WebKit,Chrome,92.0.4515.131,Windows,10.0,5f461dd6c139dd6b46c7596cbd57cd79
215,1,"""","""","""","""","""",sampler,54,444521,0.0-6.0-48.0,"""","""","""","""","""","""","""","""","""","""","""","""","2021-08-15 21:29:11",77.54.254.9,"Mozilla/5.0 (Windows NT 10.0; Win64; x64) AppleWebKit/537.36 (KHTML, like Gecko) Chrome/92.0.4515.131 Safari/537.36",WebKit,Chrome,92.0.4515.131,Windows,10.0,5f461dd6c139dd6b46c7596cbd57cd79
215,1,"""","""","""","""","""",sampler,55,444521,0.0-6.0-49.0,"""","""","""","""","""","""","""","""","""","""","""","""","2021-08-15 21:29:11",77.54.254.9,"Mozilla/5.0 (Windows NT 10.0; Win64; x64) AppleWebKit/537.36 (KHTML, like Gecko) Chrome/92.0.4515.131 Safari/537.36",WebKit,Chrome,92.0.4515.131,Windows,10.0,5f461dd6c139dd6b46c7596cbd57cd79
215,1,"""","""","""","""","""",sampler,56,444521,0.0-6.0-50.0,"""","""","""","""","""","""","""","""","""","""","""","""","2021-08-15 21:29:11",77.54.254.9,"Mozilla/5.0 (Windows NT 10.0; Win64; x64) AppleWebKit/537.36 (KHTML, like Gecko) Chrome/92.0.4515.131 Safari/537.36",WebKit,Chrome,92.0.4515.131,Windows,10.0,5f461dd6c139dd6b46c7596cbd57cd79
215,1,"""","""","""","""","""",sampler,57,444522,0.0-6.0-51.0,"""","""","""","""","""","""","""","""","""","""","""","""","2021-08-15 21:29:11",77.54.254.9,"Mozilla/5.0 (Windows NT 10.0; Win64; x64) AppleWebKit/537.36 (KHTML, like Gecko) Chrome/92.0.4515.131 Safari/537.36",WebKit,Chrome,92.0.4515.131,Windows,10.0,5f461dd6c139dd6b46c7596cbd57cd79
215,1,"""","""","""","""","""",sampler,58,444522,0.0-6.0-52.0,"""","""","""","""","""","""","""","""","""","""","""","""","2021-08-15 21:29:11",77.54.254.9,"Mozilla/5.0 (Windows NT 10.0; Win64; x64) AppleWebKit/537.36 (KHTML, like Gecko) Chrome/92.0.4515.131 Safari/537.36",WebKit,Chrome,92.0.4515.131,Windows,10.0,5f461dd6c139dd6b46c7596cbd57cd79
215,1,"""","""","""","""","""",sampler,59,444522,0.0-6.0-53.0,"""","""","""","""","""","""","""","""","""","""","""","""","2021-08-15 21:29:11",77.54.254.9,"Mozilla/5.0 (Windows NT 10.0; Win64; x64) AppleWebKit/537.36 (KHTML, like Gecko) Chrome/92.0.4515.131 Safari/537.36",WebKit,Chrome,92.0.4515.131,Windows,10.0,5f461dd6c139dd6b46c7596cbd57cd79
215,1,"""","""","""","""","""",sampler,60,444522,0.0-6.0-54.0,"""","""","""","""","""","""","""","""","""","""","""","""","2021-08-15 21:29:11",77.54.254.9,"Mozilla/5.0 (Windows NT 10.0; Win64; x64) AppleWebKit/537.36 (KHTML, like Gecko) Chrome/92.0.4515.131 Safari/537.36",WebKit,Chrome,92.0.4515.131,Windows,10.0,5f461dd6c139dd6b46c7596cbd57cd79
215,1,"""","""","""","""","""",sampler,61,444522,0.0-6.0-55.0,"""","""","""","""","""","""","""","""","""","""","""","""","2021-08-15 21:29:11",77.54.254.9,"Mozilla/5.0 (Windows NT 10.0; Win64; x64) AppleWebKit/537.36 (KHTML, like Gecko) Chrome/92.0.4515.131 Safari/537.36",WebKit,Chrome,92.0.4515.131,Windows,10.0,5f461dd6c139dd6b46c7596cbd57cd79
215,1,"""","""","""","""","""",sampler,62,444522,0.0-6.0-56.0,"""","""","""","""","""","""","""","""","""","""","""","""","2021-08-15 21:29:11",77.54.254.9,"Mozilla/5.0 (Windows NT 10.0; Win64; x64) AppleWebKit/537.36 (KHTML, like Gecko) Chrome/92.0.4515.131 Safari/537.36",WebKit,Chrome,92.0.4515.131,Windows,10.0,5f461dd6c139dd6b46c7596cbd57cd79
215,1,"""","""","""","""","""",sampler,63,444522,0.0-6.0-57.0,"""","""","""","""","""","""","""","""","""","""","""","""","2021-08-15 21:29:11",77.54.254.9,"Mozilla/5.0 (Windows NT 10.0; Win64; x64) AppleWebKit/537.36 (KHTML, like Gecko) Chrome/92.0.4515.131 Safari/537.36",WebKit,Chrome,92.0.4515.131,Windows,10.0,5f461dd6c139dd6b46c7596cbd57cd79
215,1,"""","""","""","""","""",sampler,64,444522,0.0-6.0-58.0,"""","""","""","""","""","""","""","""","""","""","""","""","2021-08-15 21:29:11",77.54.254.9,"Mozilla/5.0 (Windows NT 10.0; Win64; x64) AppleWebKit/537.36 (KHTML, like Gecko) Chrome/92.0.4515.131 Safari/537.36",WebKit,Chrome,92.0.4515.131,Windows,10.0,5f461dd6c139dd6b46c7596cbd57cd79
215,1,"""","""","""","""","""",sampler,65,444522,0.0-6.0-59.0,"""","""","""","""","""","""","""","""","""","""","""","""","2021-08-15 21:29:11",77.54.254.9,"Mozilla/5.0 (Windows NT 10.0; Win64; x64) AppleWebKit/537.36 (KHTML, like Gecko) Chrome/92.0.4515.131 Safari/537.36",WebKit,Chrome,92.0.4515.131,Windows,10.0,5f461dd6c139dd6b46c7596cbd57cd79
215,1,"""","""","""","""","""",sampler,66,444522,0.0-6.0-60.0,"""","""","""","""","""","""","""","""","""","""","""","""","2021-08-15 21:29:11",77.54.254.9,"Mozilla/5.0 (Windows NT 10.0; Win64; x64) AppleWebKit/537.36 (KHTML, like Gecko) Chrome/92.0.4515.131 Safari/537.36",WebKit,Chrome,92.0.4515.131,Windows,10.0,5f461dd6c139dd6b46c7596cbd57cd79
215,1,"""","""","""","""","""",sampler,67,444523,0.0-6.0-61.0,"""","""","""","""","""","""","""","""","""","""","""","""","2021-08-15 21:29:11",77.54.254.9,"Mozilla/5.0 (Windows NT 10.0; Win64; x64) AppleWebKit/537.36 (KHTML, like Gecko) Chrome/92.0.4515.131 Safari/537.36",WebKit,Chrome,92.0.4515.131,Windows,10.0,5f461dd6c139dd6b46c7596cbd57cd79
215,1,"""","""","""","""","""",sampler,68,444523,0.0-6.0-62.0,"""","""","""","""","""","""","""","""","""","""","""","""","2021-08-15 21:29:11",77.54.254.9,"Mozilla/5.0 (Windows NT 10.0; Win64; x64) AppleWebKit/537.36 (KHTML, like Gecko) Chrome/92.0.4515.131 Safari/537.36",WebKit,Chrome,92.0.4515.131,Windows,10.0,5f461dd6c139dd6b46c7596cbd57cd79
215,1,"""","""","""","""","""",sampler,69,444523,0.0-6.0-63.0,"""","""","""","""","""","""","""","""","""","""","""","""","2021-08-15 21:29:11",77.54.254.9,"Mozilla/5.0 (Windows NT 10.0; Win64; x64) AppleWebKit/537.36 (KHTML, like Gecko) Chrome/92.0.4515.131 Safari/537.36",WebKit,Chrome,92.0.4515.131,Windows,10.0,5f461dd6c139dd6b46c7596cbd57cd79
215,1,"""","""","""","""","""",sampler,70,444524,0.0-6.0-64.0,"""","""","""","""","""","""","""","""","""","""","""","""","2021-08-15 21:29:11",77.54.254.9,"Mozilla/5.0 (Windows NT 10.0; Win64; x64) AppleWebKit/537.36 (KHTML, like Gecko) Chrome/92.0.4515.131 Safari/537.36",WebKit,Chrome,92.0.4515.131,Windows,10.0,5f461dd6c139dd6b46c7596cbd57cd79
215,1,"""","""","""","""","""",sampler,71,444524,0.0-6.0-65.0,"""","""","""","""","""","""","""","""","""","""","""","""","2021-08-15 21:29:11",77.54.254.9,"Mozilla/5.0 (Windows NT 10.0; Win64; x64) AppleWebKit/537.36 (KHTML, like Gecko) Chrome/92.0.4515.131 Safari/537.36",WebKit,Chrome,92.0.4515.131,Windows,10.0,5f461dd6c139dd6b46c7596cbd57cd79
215,1,"""","""","""","""","""",sampler,72,444524,0.0-6.0-66.0,"""","""","""","""","""","""","""","""","""","""","""","""","2021-08-15 21:29:11",77.54.254.9,"Mozilla/5.0 (Windows NT 10.0; Win64; x64) AppleWebKit/537.36 (KHTML, like Gecko) Chrome/92.0.4515.131 Safari/537.36",WebKit,Chrome,92.0.4515.131,Windows,10.0,5f461dd6c139dd6b46c7596cbd57cd79
215,1,"""","""","""","""","""",sampler,73,444524,0.0-6.0-67.0,"""","""","""","""","""","""","""","""","""","""","""","""","2021-08-15 21:29:11",77.54.254.9,"Mozilla/5.0 (Windows NT 10.0; Win64; x64) AppleWebKit/537.36 (KHTML, like Gecko) Chrome/92.0.4515.131 Safari/537.36",WebKit,Chrome,92.0.4515.131,Windows,10.0,5f461dd6c139dd6b46c7596cbd57cd79
215,1,"""","""","""","""","""",sampler,74,444524,0.0-6.0-68.0,"""","""","""","""","""","""","""","""","""","""","""","""","2021-08-15 21:29:11",77.54.254.9,"Mozilla/5.0 (Windows NT 10.0; Win64; x64) AppleWebKit/537.36 (KHTML, like Gecko) Chrome/92.0.4515.131 Safari/537.36",WebKit,Chrome,92.0.4515.131,Windows,10.0,5f461dd6c139dd6b46c7596cbd57cd79
215,1,"""","""","""","""","""",sampler,75,444524,0.0-6.0-69.0,"""","""","""","""","""","""","""","""","""","""","""","""","2021-08-15 21:29:11",77.54.254.9,"Mozilla/5.0 (Windows NT 10.0; Win64; x64) AppleWebKit/537.36 (KHTML, like Gecko) Chrome/92.0.4515.131 Safari/537.36",WebKit,Chrome,92.0.4515.131,Windows,10.0,5f461dd6c139dd6b46c7596cbd57cd79
215,1,"""","""","""","""","""",sampler,76,444524,0.0-6.0-70.0,"""","""","""","""","""","""","""","""","""","""","""","""","2021-08-15 21:29:11",77.54.254.9,"Mozilla/5.0 (Windows NT 10.0; Win64; x64) AppleWebKit/537.36 (KHTML, like Gecko) Chrome/92.0.4515.131 Safari/537.36",WebKit,Chrome,92.0.4515.131,Windows,10.0,5f461dd6c139dd6b46c7596cbd57cd79
215,1,"""","""","""","""","""",sampler,77,444524,0.0-6.0-71.0,"""","""","""","""","""","""","""","""","""","""","""","""","2021-08-15 21:29:11",77.54.254.9,"Mozilla/5.0 (Windows NT 10.0; Win64; x64) AppleWebKit/537.36 (KHTML, like Gecko) Chrome/92.0.4515.131 Safari/537.36",WebKit,Chrome,92.0.4515.131,Windows,10.0,5f461dd6c139dd6b46c7596cbd57cd79
215,1,"""","""","""","""","""",sampler,78,444525,0.0-6.0-72.0,"""","""","""","""","""","""","""","""","""","""","""","""","2021-08-15 21:29:11",77.54.254.9,"Mozilla/5.0 (Windows NT 10.0; Win64; x64) AppleWebKit/537.36 (KHTML, like Gecko) Chrome/92.0.4515.131 Safari/537.36",WebKit,Chrome,92.0.4515.131,Windows,10.0,5f461dd6c139dd6b46c7596cbd57cd79
215,1,"""","""","""","""","""",sampler,79,444526,0.0-6.0-73.0,"""","""","""","""","""","""","""","""","""","""","""","""","2021-08-15 21:29:11",77.54.254.9,"Mozilla/5.0 (Windows NT 10.0; Win64; x64) AppleWebKit/537.36 (KHTML, like Gecko) Chrome/92.0.4515.131 Safari/537.36",WebKit,Chrome,92.0.4515.131,Windows,10.0,5f461dd6c139dd6b46c7596cbd57cd79
215,1,"""","""","""","""","""",sampler,80,444526,0.0-6.0-74.0,"""","""","""","""","""","""","""","""","""","""","""","""","2021-08-15 21:29:11",77.54.254.9,"Mozilla/5.0 (Windows NT 10.0; Win64; x64) AppleWebKit/537.36 (KHTML, like Gecko) Chrome/92.0.4515.131 Safari/537.36",WebKit,Chrome,92.0.4515.131,Windows,10.0,5f461dd6c139dd6b46c7596cbd57cd79
215,1,"""","""","""","""","""",sampler,81,444526,0.0-6.0-75.0,"""","""","""","""","""","""","""","""","""","""","""","""","2021-08-15 21:29:11",77.54.254.9,"Mozilla/5.0 (Windows NT 10.0; Win64; x64) AppleWebKit/537.36 (KHTML, like Gecko) Chrome/92.0.4515.131 Safari/537.36",WebKit,Chrome,92.0.4515.131,Windows,10.0,5f461dd6c139dd6b46c7596cbd57cd79
215,1,"""","""","""","""","""",sampler,82,444526,0.0-6.0-76.0,"""","""","""","""","""","""","""","""","""","""","""","""","2021-08-15 21:29:11",77.54.254.9,"Mozilla/5.0 (Windows NT 10.0; Win64; x64) AppleWebKit/537.36 (KHTML, like Gecko) Chrome/92.0.4515.131 Safari/537.36",WebKit,Chrome,92.0.4515.131,Windows,10.0,5f461dd6c139dd6b46c7596cbd57cd79
215,1,"""","""","""","""","""",sampler,83,444526,0.0-6.0-77.0,"""","""","""","""","""","""","""","""","""","""","""","""","2021-08-15 21:29:11",77.54.254.9,"Mozilla/5.0 (Windows NT 10.0; Win64; x64) AppleWebKit/537.36 (KHTML, like Gecko) Chrome/92.0.4515.131 Safari/537.36",WebKit,Chrome,92.0.4515.131,Windows,10.0,5f461dd6c139dd6b46c7596cbd57cd79
215,1,"""","""","""","""","""",sampler,84,444526,0.0-6.0-78.0,"""","""","""","""","""","""","""","""","""","""","""","""","2021-08-15 21:29:11",77.54.254.9,"Mozilla/5.0 (Windows NT 10.0; Win64; x64) AppleWebKit/537.36 (KHTML, like Gecko) Chrome/92.0.4515.131 Safari/537.36",WebKit,Chrome,92.0.4515.131,Windows,10.0,5f461dd6c139dd6b46c7596cbd57cd79
215,1,"""","""","""","""","""",sampler,85,444526,0.0-6.0-79.0,"""","""","""","""","""","""","""","""","""","""","""","""","2021-08-15 21:29:11",77.54.254.9,"Mozilla/5.0 (Windows NT 10.0; Win64; x64) AppleWebKit/537.36 (KHTML, like Gecko) Chrome/92.0.4515.131 Safari/537.36",WebKit,Chrome,92.0.4515.131,Windows,10.0,5f461dd6c139dd6b46c7596cbd57cd79
215,1,"""","""","""","""","""",sampler,86,444526,0.0-6.0-80.0,"""","""","""","""","""","""","""","""","""","""","""","""","2021-08-15 21:29:11",77.54.254.9,"Mozilla/5.0 (Windows NT 10.0; Win64; x64) AppleWebKit/537.36 (KHTML, like Gecko) Chrome/92.0.4515.131 Safari/537.36",WebKit,Chrome,92.0.4515.131,Windows,10.0,5f461dd6c139dd6b46c7596cbd57cd79
215,1,"""","""","""","""","""",sampler,87,444526,0.0-6.0-81.0,"""","""","""","""","""","""","""","""","""","""","""","""","2021-08-15 21:29:11",77.54.254.9,"Mozilla/5.0 (Windows NT 10.0; Win64; x64) AppleWebKit/537.36 (KHTML, like Gecko) Chrome/92.0.4515.131 Safari/537.36",WebKit,Chrome,92.0.4515.131,Windows,10.0,5f461dd6c139dd6b46c7596cbd57cd79
215,1,"""","""","""","""","""",sampler,88,444527,0.0-6.0-82.0,"""","""","""","""","""","""","""","""","""","""","""","""","2021-08-15 21:29:11",77.54.254.9,"Mozilla/5.0 (Windows NT 10.0; Win64; x64) AppleWebKit/537.36 (KHTML, like Gecko) Chrome/92.0.4515.131 Safari/537.36",WebKit,Chrome,92.0.4515.131,Windows,10.0,5f461dd6c139dd6b46c7596cbd57cd79
215,1,"""","""","""","""","""",sampler,89,444527,0.0-6.0-83.0,"""","""","""","""","""","""","""","""","""","""","""","""","2021-08-15 21:29:11",77.54.254.9,"Mozilla/5.0 (Windows NT 10.0; Win64; x64) AppleWebKit/537.36 (KHTML, like Gecko) Chrome/92.0.4515.131 Safari/537.36",WebKit,Chrome,92.0.4515.131,Windows,10.0,5f461dd6c139dd6b46c7596cbd57cd79
215,1,"""","""","""","""","""",sampler,90,444527,0.0-6.0-84.0,"""","""","""","""","""","""","""","""","""","""","""","""","2021-08-15 21:29:11",77.54.254.9,"Mozilla/5.0 (Windows NT 10.0; Win64; x64) AppleWebKit/537.36 (KHTML, like Gecko) Chrome/92.0.4515.131 Safari/537.36",WebKit,Chrome,92.0.4515.131,Windows,10.0,5f461dd6c139dd6b46c7596cbd57cd79
215,1,"""","""","""","""","""",sampler,91,444527,0.0-6.0-85.0,"""","""","""","""","""","""","""","""","""","""","""","""","2021-08-15 21:29:11",77.54.254.9,"Mozilla/5.0 (Windows NT 10.0; Win64; x64) AppleWebKit/537.36 (KHTML, like Gecko) Chrome/92.0.4515.131 Safari/537.36",WebKit,Chrome,92.0.4515.131,Windows,10.0,5f461dd6c139dd6b46c7596cbd57cd79
215,1,"""","""","""","""","""",sampler,92,444527,0.0-6.0-86.0,"""","""","""","""","""","""","""","""","""","""","""","""","2021-08-15 21:29:11",77.54.254.9,"Mozilla/5.0 (Windows NT 10.0; Win64; x64) AppleWebKit/537.36 (KHTML, like Gecko) Chrome/92.0.4515.131 Safari/537.36",WebKit,Chrome,92.0.4515.131,Windows,10.0,5f461dd6c139dd6b46c7596cbd57cd79
215,1,"""","""","""","""","""",sampler,93,444527,0.0-6.0-87.0,"""","""","""","""","""","""","""","""","""","""","""","""","2021-08-15 21:29:11",77.54.254.9,"Mozilla/5.0 (Windows NT 10.0; Win64; x64) AppleWebKit/537.36 (KHTML, like Gecko) Chrome/92.0.4515.131 Safari/537.36",WebKit,Chrome,92.0.4515.131,Windows,10.0,5f461dd6c139dd6b46c7596cbd57cd79
215,1,"""","""","""","""","""",sampler,94,444527,0.0-6.0-88.0,"""","""","""","""","""","""","""","""","""","""","""","""","2021-08-15 21:29:11",77.54.254.9,"Mozilla/5.0 (Windows NT 10.0; Win64; x64) AppleWebKit/537.36 (KHTML, like Gecko) Chrome/92.0.4515.131 Safari/537.36",WebKit,Chrome,92.0.4515.131,Windows,10.0,5f461dd6c139dd6b46c7596cbd57cd79
215,1,"""","""","""","""","""",sampler,95,444527,0.0-6.0-89.0,"""","""","""","""","""","""","""","""","""","""","""","""","2021-08-15 21:29:11",77.54.254.9,"Mozilla/5.0 (Windows NT 10.0; Win64; x64) AppleWebKit/537.36 (KHTML, like Gecko) Chrome/92.0.4515.131 Safari/537.36",WebKit,Chrome,92.0.4515.131,Windows,10.0,5f461dd6c139dd6b46c7596cbd57cd79
215,1,"""","""","""","""","""",sampler,96,444527,0.0-6.0-90.0,"""","""","""","""","""","""","""","""","""","""","""","""","2021-08-15 21:29:11",77.54.254.9,"Mozilla/5.0 (Windows NT 10.0; Win64; x64) AppleWebKit/537.36 (KHTML, like Gecko) Chrome/92.0.4515.131 Safari/537.36",WebKit,Chrome,92.0.4515.131,Windows,10.0,5f461dd6c139dd6b46c7596cbd57cd79
215,1,"""","""","""","""","""",sampler,97,444527,0.0-6.0-91.0,"""","""","""","""","""","""","""","""","""","""","""","""","2021-08-15 21:29:11",77.54.254.9,"Mozilla/5.0 (Windows NT 10.0; Win64; x64) AppleWebKit/537.36 (KHTML, like Gecko) Chrome/92.0.4515.131 Safari/537.36",WebKit,Chrome,92.0.4515.131,Windows,10.0,5f461dd6c139dd6b46c7596cbd57cd79
215,1,"""","""","""","""","""",sampler,98,444527,0.0-6.0-92.0,"""","""","""","""","""","""","""","""","""","""","""","""","2021-08-15 21:29:11",77.54.254.9,"Mozilla/5.0 (Windows NT 10.0; Win64; x64) AppleWebKit/537.36 (KHTML, like Gecko) Chrome/92.0.4515.131 Safari/537.36",WebKit,Chrome,92.0.4515.131,Windows,10.0,5f461dd6c139dd6b46c7596cbd57cd79
215,1,"""","""","""","""","""",sampler,99,444528,0.0-6.0-93.0,"""","""","""","""","""","""","""","""","""","""","""","""","2021-08-15 21:29:11",77.54.254.9,"Mozilla/5.0 (Windows NT 10.0; Win64; x64) AppleWebKit/537.36 (KHTML, like Gecko) Chrome/92.0.4515.131 Safari/537.36",WebKit,Chrome,92.0.4515.131,Windows,10.0,5f461dd6c139dd6b46c7596cbd57cd79
215,1,"""","""","""","""","""",sampler,100,444528,0.0-6.0-94.0,"""","""","""","""","""","""","""","""","""","""","""","""","2021-08-15 21:29:11",77.54.254.9,"Mozilla/5.0 (Windows NT 10.0; Win64; x64) AppleWebKit/537.36 (KHTML, like Gecko) Chrome/92.0.4515.131 Safari/537.36",WebKit,Chrome,92.0.4515.131,Windows,10.0,5f461dd6c139dd6b46c7596cbd57cd79
215,1,"""","""","""","""","""",sampler,101,444528,0.0-6.0-95.0,"""","""","""","""","""","""","""","""","""","""","""","""","2021-08-15 21:29:11",77.54.254.9,"Mozilla/5.0 (Windows NT 10.0; Win64; x64) AppleWebKit/537.36 (KHTML, like Gecko) Chrome/92.0.4515.131 Safari/537.36",WebKit,Chrome,92.0.4515.131,Windows,10.0,5f461dd6c139dd6b46c7596cbd57cd79
215,1,"""","""","""","""","""",sampler,102,444528,0.0-6.0-96.0,"""","""","""","""","""","""","""","""","""","""","""","""","2021-08-15 21:29:11",77.54.254.9,"Mozilla/5.0 (Windows NT 10.0; Win64; x64) AppleWebKit/537.36 (KHTML, like Gecko) Chrome/92.0.4515.131 Safari/537.36",WebKit,Chrome,92.0.4515.131,Windows,10.0,5f461dd6c139dd6b46c7596cbd57cd79
215,1,"""","""","""","""","""",sampler,103,444528,0.0-6.0-97.0,"""","""","""","""","""","""","""","""","""","""","""","""","2021-08-15 21:29:11",77.54.254.9,"Mozilla/5.0 (Windows NT 10.0; Win64; x64) AppleWebKit/537.36 (KHTML, like Gecko) Chrome/92.0.4515.131 Safari/537.36",WebKit,Chrome,92.0.4515.131,Windows,10.0,5f461dd6c139dd6b46c7596cbd57cd79
215,1,"""","""","""","""","""",sampler,104,444528,0.0-6.0-98.0,"""","""","""","""","""","""","""","""","""","""","""","""","2021-08-15 21:29:11",77.54.254.9,"Mozilla/5.0 (Windows NT 10.0; Win64; x64) AppleWebKit/537.36 (KHTML, like Gecko) Chrome/92.0.4515.131 Safari/537.36",WebKit,Chrome,92.0.4515.131,Windows,10.0,5f461dd6c139dd6b46c7596cbd57cd79
215,1,"""","""","""","""","""",sampler,105,444528,0.0-6.0-99.0,"""","""","""","""","""","""","""","""","""","""","""","""","2021-08-15 21:29:11",77.54.254.9,"Mozilla/5.0 (Windows NT 10.0; Win64; x64) AppleWebKit/537.36 (KHTML, like Gecko) Chrome/92.0.4515.131 Safari/537.36",WebKit,Chrome,92.0.4515.131,Windows,10.0,5f461dd6c139dd6b46c7596cbd57cd79
215,1,"""","""","""","""","""",sampler,106,444528,0.0-6.0-100.0,"""","""","""","""","""","""","""","""","""","""","""","""","2021-08-15 21:29:11",77.54.254.9,"Mozilla/5.0 (Windows NT 10.0; Win64; x64) AppleWebKit/537.36 (KHTML, like Gecko) Chrome/92.0.4515.131 Safari/537.36",WebKit,Chrome,92.0.4515.131,Windows,10.0,5f461dd6c139dd6b46c7596cbd57cd79
215,1,"""","""","""","""","""",sampler,107,444528,0.0-6.0-101.0,"""","""","""","""","""","""","""","""","""","""","""","""","2021-08-15 21:29:11",77.54.254.9,"Mozilla/5.0 (Windows NT 10.0; Win64; x64) AppleWebKit/537.36 (KHTML, like Gecko) Chrome/92.0.4515.131 Safari/537.36",WebKit,Chrome,92.0.4515.131,Windows,10.0,5f461dd6c139dd6b46c7596cbd57cd79
215,1,"""","""","""","""","""",sampler,108,444528,0.0-6.0-102.0,"""","""","""","""","""","""","""","""","""","""","""","""","2021-08-15 21:29:11",77.54.254.9,"Mozilla/5.0 (Windows NT 10.0; Win64; x64) AppleWebKit/537.36 (KHTML, like Gecko) Chrome/92.0.4515.131 Safari/537.36",WebKit,Chrome,92.0.4515.131,Windows,10.0,5f461dd6c139dd6b46c7596cbd57cd79
215,1,"""","""","""","""","""",sampler,109,444529,0.0-6.0-103.0,"""","""","""","""","""","""","""","""","""","""","""","""","2021-08-15 21:29:11",77.54.254.9,"Mozilla/5.0 (Windows NT 10.0; Win64; x64) AppleWebKit/537.36 (KHTML, like Gecko) Chrome/92.0.4515.131 Safari/537.36",WebKit,Chrome,92.0.4515.131,Windows,10.0,5f461dd6c139dd6b46c7596cbd57cd79
215,1,"""","""","""","""","""",sampler,110,444529,0.0-6.0-104.0,"""","""","""","""","""","""","""","""","""","""","""","""","2021-08-15 21:29:11",77.54.254.9,"Mozilla/5.0 (Windows NT 10.0; Win64; x64) AppleWebKit/537.36 (KHTML, like Gecko) Chrome/92.0.4515.131 Safari/537.36",WebKit,Chrome,92.0.4515.131,Windows,10.0,5f461dd6c139dd6b46c7596cbd57cd79
215,1,"""","""","""","""","""",sampler,111,444529,0.0-6.0-105.0,"""","""","""","""","""","""","""","""","""","""","""","""","2021-08-15 21:29:11",77.54.254.9,"Mozilla/5.0 (Windows NT 10.0; Win64; x64) AppleWebKit/537.36 (KHTML, like Gecko) Chrome/92.0.4515.131 Safari/537.36",WebKit,Chrome,92.0.4515.131,Windows,10.0,5f461dd6c139dd6b46c7596cbd57cd79
215,1,"""","""","""","""","""",sampler,112,444529,0.0-6.0-106.0,"""","""","""","""","""","""","""","""","""","""","""","""","2021-08-15 21:29:11",77.54.254.9,"Mozilla/5.0 (Windows NT 10.0; Win64; x64) AppleWebKit/537.36 (KHTML, like Gecko) Chrome/92.0.4515.131 Safari/537.36",WebKit,Chrome,92.0.4515.131,Windows,10.0,5f461dd6c139dd6b46c7596cbd57cd79
215,1,"""","""","""","""","""",sampler,113,444529,0.0-6.0-107.0,"""","""","""","""","""","""","""","""","""","""","""","""","2021-08-15 21:29:11",77.54.254.9,"Mozilla/5.0 (Windows NT 10.0; Win64; x64) AppleWebKit/537.36 (KHTML, like Gecko) Chrome/92.0.4515.131 Safari/537.36",WebKit,Chrome,92.0.4515.131,Windows,10.0,5f461dd6c139dd6b46c7596cbd57cd79
215,1,"""","""","""","""","""",sampler,114,444529,0.0-6.0-108.0,"""","""","""","""","""","""","""","""","""","""","""","""","2021-08-15 21:29:11",77.54.254.9,"Mozilla/5.0 (Windows NT 10.0; Win64; x64) AppleWebKit/537.36 (KHTML, like Gecko) Chrome/92.0.4515.131 Safari/537.36",WebKit,Chrome,92.0.4515.131,Windows,10.0,5f461dd6c139dd6b46c7596cbd57cd79
215,1,"""","""","""","""","""",sampler,115,444529,0.0-6.0-109.0,"""","""","""","""","""","""","""","""","""","""","""","""","2021-08-15 21:29:11",77.54.254.9,"Mozilla/5.0 (Windows NT 10.0; Win64; x64) AppleWebKit/537.36 (KHTML, like Gecko) Chrome/92.0.4515.131 Safari/537.36",WebKit,Chrome,92.0.4515.131,Windows,10.0,5f461dd6c139dd6b46c7596cbd57cd79
215,1,"""","""","""","""","""",sampler,116,444529,0.0-6.0-110.0,"""","""","""","""","""","""","""","""","""","""","""","""","2021-08-15 21:29:11",77.54.254.9,"Mozilla/5.0 (Windows NT 10.0; Win64; x64) AppleWebKit/537.36 (KHTML, like Gecko) Chrome/92.0.4515.131 Safari/537.36",WebKit,Chrome,92.0.4515.131,Windows,10.0,5f461dd6c139dd6b46c7596cbd57cd79
215,1,"""","""","""","""","""",sampler,117,444529,0.0-6.0-111.0,"""","""","""","""","""","""","""","""","""","""","""","""","2021-08-15 21:29:11",77.54.254.9,"Mozilla/5.0 (Windows NT 10.0; Win64; x64) AppleWebKit/537.36 (KHTML, like Gecko) Chrome/92.0.4515.131 Safari/537.36",WebKit,Chrome,92.0.4515.131,Windows,10.0,5f461dd6c139dd6b46c7596cbd57cd79
215,1,"""","""","""","""","""",sampler,118,444529,0.0-6.0-112.0,"""","""","""","""","""","""","""","""","""","""","""","""","2021-08-15 21:29:11",77.54.254.9,"Mozilla/5.0 (Windows NT 10.0; Win64; x64) AppleWebKit/537.36 (KHTML, like Gecko) Chrome/92.0.4515.131 Safari/537.36",WebKit,Chrome,92.0.4515.131,Windows,10.0,5f461dd6c139dd6b46c7596cbd57cd79
215,1,"""","""","""","""","""",sampler,119,444529,0.0-6.0-113.0,"""","""","""","""","""","""","""","""","""","""","""","""","2021-08-15 21:29:11",77.54.254.9,"Mozilla/5.0 (Windows NT 10.0; Win64; x64) AppleWebKit/537.36 (KHTML, like Gecko) Chrome/92.0.4515.131 Safari/537.36",WebKit,Chrome,92.0.4515.131,Windows,10.0,5f461dd6c139dd6b46c7596cbd57cd79
215,1,"""","""","""","""","""",sampler,120,444530,0.0-6.0-114.0,"""","""","""","""","""","""","""","""","""","""","""","""","2021-08-15 21:29:11",77.54.254.9,"Mozilla/5.0 (Windows NT 10.0; Win64; x64) AppleWebKit/537.36 (KHTML, like Gecko) Chrome/92.0.4515.131 Safari/537.36",WebKit,Chrome,92.0.4515.131,Windows,10.0,5f461dd6c139dd6b46c7596cbd57cd79
215,1,"""","""","""","""","""",sampler,121,444530,0.0-6.0-115.0,"""","""","""","""","""","""","""","""","""","""","""","""","2021-08-15 21:29:11",77.54.254.9,"Mozilla/5.0 (Windows NT 10.0; Win64; x64) AppleWebKit/537.36 (KHTML, like Gecko) Chrome/92.0.4515.131 Safari/537.36",WebKit,Chrome,92.0.4515.131,Windows,10.0,5f461dd6c139dd6b46c7596cbd57cd79
215,1,"""","""","""","""","""",sampler,122,444530,0.0-6.0-116.0,"""","""","""","""","""","""","""","""","""","""","""","""","2021-08-15 21:29:11",77.54.254.9,"Mozilla/5.0 (Windows NT 10.0; Win64; x64) AppleWebKit/537.36 (KHTML, like Gecko) Chrome/92.0.4515.131 Safari/537.36",WebKit,Chrome,92.0.4515.131,Windows,10.0,5f461dd6c139dd6b46c7596cbd57cd79
215,1,"""","""","""","""","""",sampler,123,444530,0.0-6.0-117.0,"""","""","""","""","""","""","""","""","""","""","""","""","2021-08-15 21:29:11",77.54.254.9,"Mozilla/5.0 (Windows NT 10.0; Win64; x64) AppleWebKit/537.36 (KHTML, like Gecko) Chrome/92.0.4515.131 Safari/537.36",WebKit,Chrome,92.0.4515.131,Windows,10.0,5f461dd6c139dd6b46c7596cbd57cd79
215,1,"""","""","""","""","""",sampler,124,444530,0.0-6.0-118.0,"""","""","""","""","""","""","""","""","""","""","""","""","2021-08-15 21:29:11",77.54.254.9,"Mozilla/5.0 (Windows NT 10.0; Win64; x64) AppleWebKit/537.36 (KHTML, like Gecko) Chrome/92.0.4515.131 Safari/537.36",WebKit,Chrome,92.0.4515.131,Windows,10.0,5f461dd6c139dd6b46c7596cbd57cd79
215,1,"""","""","""","""","""",sampler,125,444530,0.0-6.0-119.0,"""","""","""","""","""","""","""","""","""","""","""","""","2021-08-15 21:29:11",77.54.254.9,"Mozilla/5.0 (Windows NT 10.0; Win64; x64) AppleWebKit/537.36 (KHTML, like Gecko) Chrome/92.0.4515.131 Safari/537.36",WebKit,Chrome,92.0.4515.131,Windows,10.0,5f461dd6c139dd6b46c7596cbd57cd79
215,1,"""","""","""","""","""",sampler,126,444530,0.0-6.0-120.0,"""","""","""","""","""","""","""","""","""","""","""","""","2021-08-15 21:29:11",77.54.254.9,"Mozilla/5.0 (Windows NT 10.0; Win64; x64) AppleWebKit/537.36 (KHTML, like Gecko) Chrome/92.0.4515.131 Safari/537.36",WebKit,Chrome,92.0.4515.131,Windows,10.0,5f461dd6c139dd6b46c7596cbd57cd79
215,1,"""","""","""","""","""",sampler,127,444530,0.0-6.0-121.0,"""","""","""","""","""","""","""","""","""","""","""","""","2021-08-15 21:29:11",77.54.254.9,"Mozilla/5.0 (Windows NT 10.0; Win64; x64) AppleWebKit/537.36 (KHTML, like Gecko) Chrome/92.0.4515.131 Safari/537.36",WebKit,Chrome,92.0.4515.131,Windows,10.0,5f461dd6c139dd6b46c7596cbd57cd79
215,1,"""","""","""","""","""",sampler,128,444530,0.0-6.0-122.0,"""","""","""","""","""","""","""","""","""","""","""","""","2021-08-15 21:29:11",77.54.254.9,"Mozilla/5.0 (Windows NT 10.0; Win64; x64) AppleWebKit/537.36 (KHTML, like Gecko) Chrome/92.0.4515.131 Safari/537.36",WebKit,Chrome,92.0.4515.131,Windows,10.0,5f461dd6c139dd6b46c7596cbd57cd79
215,1,"""","""","""","""","""",sampler,129,444530,0.0-6.0-123.0,"""","""","""","""","""","""","""","""","""","""","""","""","2021-08-15 21:29:11",77.54.254.9,"Mozilla/5.0 (Windows NT 10.0; Win64; x64) AppleWebKit/537.36 (KHTML, like Gecko) Chrome/92.0.4515.131 Safari/537.36",WebKit,Chrome,92.0.4515.131,Windows,10.0,5f461dd6c139dd6b46c7596cbd57cd79
215,1,"""","""","""","""","""",sampler,130,444531,0.0-6.0-124.0,"""","""","""","""","""","""","""","""","""","""","""","""","2021-08-15 21:29:11",77.54.254.9,"Mozilla/5.0 (Windows NT 10.0; Win64; x64) AppleWebKit/537.36 (KHTML, like Gecko) Chrome/92.0.4515.131 Safari/537.36",WebKit,Chrome,92.0.4515.131,Windows,10.0,5f461dd6c139dd6b46c7596cbd57cd79
215,1,"""","""","""","""","""",sampler,131,444531,0.0-6.0-125.0,"""","""","""","""","""","""","""","""","""","""","""","""","2021-08-15 21:29:11",77.54.254.9,"Mozilla/5.0 (Windows NT 10.0; Win64; x64) AppleWebKit/537.36 (KHTML, like Gecko) Chrome/92.0.4515.131 Safari/537.36",WebKit,Chrome,92.0.4515.131,Windows,10.0,5f461dd6c139dd6b46c7596cbd57cd79
215,1,"""","""","""","""","""",sampler,132,444531,0.0-6.0-126.0,"""","""","""","""","""","""","""","""","""","""","""","""","2021-08-15 21:29:11",77.54.254.9,"Mozilla/5.0 (Windows NT 10.0; Win64; x64) AppleWebKit/537.36 (KHTML, like Gecko) Chrome/92.0.4515.131 Safari/537.36",WebKit,Chrome,92.0.4515.131,Windows,10.0,5f461dd6c139dd6b46c7596cbd57cd79
215,1,"""","""","""","""","""",sampler,133,444531,0.0-6.0-127.0,"""","""","""","""","""","""","""","""","""","""","""","""","2021-08-15 21:29:11",77.54.254.9,"Mozilla/5.0 (Windows NT 10.0; Win64; x64) AppleWebKit/537.36 (KHTML, like Gecko) Chrome/92.0.4515.131 Safari/537.36",WebKit,Chrome,92.0.4515.131,Windows,10.0,5f461dd6c139dd6b46c7596cbd57cd79
215,1,"""","""","""","""","""",sampler,134,444531,0.0-6.0-128.0,"""","""","""","""","""","""","""","""","""","""","""","""","2021-08-15 21:29:11",77.54.254.9,"Mozilla/5.0 (Windows NT 10.0; Win64; x64) AppleWebKit/537.36 (KHTML, like Gecko) Chrome/92.0.4515.131 Safari/537.36",WebKit,Chrome,92.0.4515.131,Windows,10.0,5f461dd6c139dd6b46c7596cbd57cd79
215,1,"""","""","""","""","""",sampler,135,444531,0.0-6.0-129.0,"""","""","""","""","""","""","""","""","""","""","""","""","2021-08-15 21:29:11",77.54.254.9,"Mozilla/5.0 (Windows NT 10.0; Win64; x64) AppleWebKit/537.36 (KHTML, like Gecko) Chrome/92.0.4515.131 Safari/537.36",WebKit,Chrome,92.0.4515.131,Windows,10.0,5f461dd6c139dd6b46c7596cbd57cd79
215,1,"""","""","""","""","""",sampler,136,444531,0.0-6.0-130.0,"""","""","""","""","""","""","""","""","""","""","""","""","2021-08-15 21:29:11",77.54.254.9,"Mozilla/5.0 (Windows NT 10.0; Win64; x64) AppleWebKit/537.36 (KHTML, like Gecko) Chrome/92.0.4515.131 Safari/537.36",WebKit,Chrome,92.0.4515.131,Windows,10.0,5f461dd6c139dd6b46c7596cbd57cd79
215,1,"""","""","""","""","""",sampler,137,444531,0.0-6.0-131.0,"""","""","""","""","""","""","""","""","""","""","""","""","2021-08-15 21:29:11",77.54.254.9,"Mozilla/5.0 (Windows NT 10.0; Win64; x64) AppleWebKit/537.36 (KHTML, like Gecko) Chrome/92.0.4515.131 Safari/537.36",WebKit,Chrome,92.0.4515.131,Windows,10.0,5f461dd6c139dd6b46c7596cbd57cd79
215,1,"""","""","""","""","""",sampler,138,444531,0.0-6.0-132.0,"""","""","""","""","""","""","""","""","""","""","""","""","2021-08-15 21:29:11",77.54.254.9,"Mozilla/5.0 (Windows NT 10.0; Win64; x64) AppleWebKit/537.36 (KHTML, like Gecko) Chrome/92.0.4515.131 Safari/537.36",WebKit,Chrome,92.0.4515.131,Windows,10.0,5f461dd6c139dd6b46c7596cbd57cd79
215,1,"""","""","""","""","""",sampler,139,444531,0.0-6.0-133.0,"""","""","""","""","""","""","""","""","""","""","""","""","2021-08-15 21:29:11",77.54.254.9,"Mozilla/5.0 (Windows NT 10.0; Win64; x64) AppleWebKit/537.36 (KHTML, like Gecko) Chrome/92.0.4515.131 Safari/537.36",WebKit,Chrome,92.0.4515.131,Windows,10.0,5f461dd6c139dd6b46c7596cbd57cd79
215,1,"""","""","""","""","""",sampler,140,444531,0.0-6.0-134.0,"""","""","""","""","""","""","""","""","""","""","""","""","2021-08-15 21:29:11",77.54.254.9,"Mozilla/5.0 (Windows NT 10.0; Win64; x64) AppleWebKit/537.36 (KHTML, like Gecko) Chrome/92.0.4515.131 Safari/537.36",WebKit,Chrome,92.0.4515.131,Windows,10.0,5f461dd6c139dd6b46c7596cbd57cd79
215,1,"""","""","""","""","""",sampler,141,444531,0.0-6.0-135.0,"""","""","""","""","""","""","""","""","""","""","""","""","2021-08-15 21:29:11",77.54.254.9,"Mozilla/5.0 (Windows NT 10.0; Win64; x64) AppleWebKit/537.36 (KHTML, like Gecko) Chrome/92.0.4515.131 Safari/537.36",WebKit,Chrome,92.0.4515.131,Windows,10.0,5f461dd6c139dd6b46c7596cbd57cd79
215,1,"""","""","""","""","""",sampler,142,444531,0.0-6.0-136.0,"""","""","""","""","""","""","""","""","""","""","""","""","2021-08-15 21:29:11",77.54.254.9,"Mozilla/5.0 (Windows NT 10.0; Win64; x64) AppleWebKit/537.36 (KHTML, like Gecko) Chrome/92.0.4515.131 Safari/537.36",WebKit,Chrome,92.0.4515.131,Windows,10.0,5f461dd6c139dd6b46c7596cbd57cd79
215,1,"""","""","""","""","""",sampler,143,444532,0.0-6.0-137.0,"""","""","""","""","""","""","""","""","""","""","""","""","2021-08-15 21:29:11",77.54.254.9,"Mozilla/5.0 (Windows NT 10.0; Win64; x64) AppleWebKit/537.36 (KHTML, like Gecko) Chrome/92.0.4515.131 Safari/537.36",WebKit,Chrome,92.0.4515.131,Windows,10.0,5f461dd6c139dd6b46c7596cbd57cd79
215,1,"""","""","""","""","""",sampler,144,444532,0.0-6.0-138.0,"""","""","""","""","""","""","""","""","""","""","""","""","2021-08-15 21:29:11",77.54.254.9,"Mozilla/5.0 (Windows NT 10.0; Win64; x64) AppleWebKit/537.36 (KHTML, like Gecko) Chrome/92.0.4515.131 Safari/537.36",WebKit,Chrome,92.0.4515.131,Windows,10.0,5f461dd6c139dd6b46c7596cbd57cd79
215,1,"""","""","""","""","""",sampler,145,444532,0.0-6.0-139.0,"""","""","""","""","""","""","""","""","""","""","""","""","2021-08-15 21:29:11",77.54.254.9,"Mozilla/5.0 (Windows NT 10.0; Win64; x64) AppleWebKit/537.36 (KHTML, like Gecko) Chrome/92.0.4515.131 Safari/537.36",WebKit,Chrome,92.0.4515.131,Windows,10.0,5f461dd6c139dd6b46c7596cbd57cd79
215,1,"""","""","""","""","""",sampler,146,444532,0.0-6.0-140.0,"""","""","""","""","""","""","""","""","""","""","""","""","2021-08-15 21:29:11",77.54.254.9,"Mozilla/5.0 (Windows NT 10.0; Win64; x64) AppleWebKit/537.36 (KHTML, like Gecko) Chrome/92.0.4515.131 Safari/537.36",WebKit,Chrome,92.0.4515.131,Windows,10.0,5f461dd6c139dd6b46c7596cbd57cd79
215,1,"""","""","""","""","""",sampler,147,444532,0.0-6.0-141.0,"""","""","""","""","""","""","""","""","""","""","""","""","2021-08-15 21:29:11",77.54.254.9,"Mozilla/5.0 (Windows NT 10.0; Win64; x64) AppleWebKit/537.36 (KHTML, like Gecko) Chrome/92.0.4515.131 Safari/537.36",WebKit,Chrome,92.0.4515.131,Windows,10.0,5f461dd6c139dd6b46c7596cbd57cd79
215,1,"""","""","""","""","""",sampler,148,444532,0.0-6.0-142.0,"""","""","""","""","""","""","""","""","""","""","""","""","2021-08-15 21:29:11",77.54.254.9,"Mozilla/5.0 (Windows NT 10.0; Win64; x64) AppleWebKit/537.36 (KHTML, like Gecko) Chrome/92.0.4515.131 Safari/537.36",WebKit,Chrome,92.0.4515.131,Windows,10.0,5f461dd6c139dd6b46c7596cbd57cd79
215,1,"""","""","""","""","""",sampler,149,444532,0.0-6.0-143.0,"""","""","""","""","""","""","""","""","""","""","""","""","2021-08-15 21:29:11",77.54.254.9,"Mozilla/5.0 (Windows NT 10.0; Win64; x64) AppleWebKit/537.36 (KHTML, like Gecko) Chrome/92.0.4515.131 Safari/537.36",WebKit,Chrome,92.0.4515.131,Windows,10.0,5f461dd6c139dd6b46c7596cbd57cd79
215,1,"""","""","""","""","""",sampler,150,444532,0.0-6.0-144.0,"""","""","""","""","""","""","""","""","""","""","""","""","2021-08-15 21:29:11",77.54.254.9,"Mozilla/5.0 (Windows NT 10.0; Win64; x64) AppleWebKit/537.36 (KHTML, like Gecko) Chrome/92.0.4515.131 Safari/537.36",WebKit,Chrome,92.0.4515.131,Windows,10.0,5f461dd6c139dd6b46c7596cbd57cd79
215,1,"""","""","""","""","""",sampler,151,444532,0.0-6.0-145.0,"""","""","""","""","""","""","""","""","""","""","""","""","2021-08-15 21:29:11",77.54.254.9,"Mozilla/5.0 (Windows NT 10.0; Win64; x64) AppleWebKit/537.36 (KHTML, like Gecko) Chrome/92.0.4515.131 Safari/537.36",WebKit,Chrome,92.0.4515.131,Windows,10.0,5f461dd6c139dd6b46c7596cbd57cd79
215,1,"""","""","""","""","""",sampler,152,444532,0.0-6.0-146.0,"""","""","""","""","""","""","""","""","""","""","""","""","2021-08-15 21:29:11",77.54.254.9,"Mozilla/5.0 (Windows NT 10.0; Win64; x64) AppleWebKit/537.36 (KHTML, like Gecko) Chrome/92.0.4515.131 Safari/537.36",WebKit,Chrome,92.0.4515.131,Windows,10.0,5f461dd6c139dd6b46c7596cbd57cd79
215,1,"""","""","""","""","""",sampler,153,444532,0.0-6.0-147.0,"""","""","""","""","""","""","""","""","""","""","""","""","2021-08-15 21:29:11",77.54.254.9,"Mozilla/5.0 (Windows NT 10.0; Win64; x64) AppleWebKit/537.36 (KHTML, like Gecko) Chrome/92.0.4515.131 Safari/537.36",WebKit,Chrome,92.0.4515.131,Windows,10.0,5f461dd6c139dd6b46c7596cbd57cd79
215,1,"""","""","""","""","""",sampler,154,444532,0.0-6.0-148.0,"""","""","""","""","""","""","""","""","""","""","""","""","2021-08-15 21:29:11",77.54.254.9,"Mozilla/5.0 (Windows NT 10.0; Win64; x64) AppleWebKit/537.36 (KHTML, like Gecko) Chrome/92.0.4515.131 Safari/537.36",WebKit,Chrome,92.0.4515.131,Windows,10.0,5f461dd6c139dd6b46c7596cbd57cd79
215,1,"""","""","""","""","""",sampler,155,444532,0.0-6.0-149.0,"""","""","""","""","""","""","""","""","""","""","""","""","2021-08-15 21:29:11",77.54.254.9,"Mozilla/5.0 (Windows NT 10.0; Win64; x64) AppleWebKit/537.36 (KHTML, like Gecko) Chrome/92.0.4515.131 Safari/537.36",WebKit,Chrome,92.0.4515.131,Windows,10.0,5f461dd6c139dd6b46c7596cbd57cd79
215,1,"""","""","""","""","""",sampler,156,444533,0.0-6.0-150.0,"""","""","""","""","""","""","""","""","""","""","""","""","2021-08-15 21:29:11",77.54.254.9,"Mozilla/5.0 (Windows NT 10.0; Win64; x64) AppleWebKit/537.36 (KHTML, like Gecko) Chrome/92.0.4515.131 Safari/537.36",WebKit,Chrome,92.0.4515.131,Windows,10.0,5f461dd6c139dd6b46c7596cbd57cd79
215,1,"""","""","""","""","""",sampler,157,444533,0.0-6.0-151.0,"""","""","""","""","""","""","""","""","""","""","""","""","2021-08-15 21:29:11",77.54.254.9,"Mozilla/5.0 (Windows NT 10.0; Win64; x64) AppleWebKit/537.36 (KHTML, like Gecko) Chrome/92.0.4515.131 Safari/537.36",WebKit,Chrome,92.0.4515.131,Windows,10.0,5f461dd6c139dd6b46c7596cbd57cd79
215,1,"""","""","""","""","""",sampler,158,444533,0.0-6.0-152.0,"""","""","""","""","""","""","""","""","""","""","""","""","2021-08-15 21:29:11",77.54.254.9,"Mozilla/5.0 (Windows NT 10.0; Win64; x64) AppleWebKit/537.36 (KHTML, like Gecko) Chrome/92.0.4515.131 Safari/537.36",WebKit,Chrome,92.0.4515.131,Windows,10.0,5f461dd6c139dd6b46c7596cbd57cd79
215,1,"""","""","""","""","""",sampler,159,444533,0.0-6.0-153.0,"""","""","""","""","""","""","""","""","""","""","""","""","2021-08-15 21:29:11",77.54.254.9,"Mozilla/5.0 (Windows NT 10.0; Win64; x64) AppleWebKit/537.36 (KHTML, like Gecko) Chrome/92.0.4515.131 Safari/537.36",WebKit,Chrome,92.0.4515.131,Windows,10.0,5f461dd6c139dd6b46c7596cbd57cd79
215,1,"""","""","""","""","""",sampler,160,444533,0.0-6.0-154.0,"""","""","""","""","""","""","""","""","""","""","""","""","2021-08-15 21:29:11",77.54.254.9,"Mozilla/5.0 (Windows NT 10.0; Win64; x64) AppleWebKit/537.36 (KHTML, like Gecko) Chrome/92.0.4515.131 Safari/537.36",WebKit,Chrome,92.0.4515.131,Windows,10.0,5f461dd6c139dd6b46c7596cbd57cd79
215,1,"""","""","""","""","""",sampler,161,444533,0.0-6.0-155.0,"""","""","""","""","""","""","""","""","""","""","""","""","2021-08-15 21:29:11",77.54.254.9,"Mozilla/5.0 (Windows NT 10.0; Win64; x64) AppleWebKit/537.36 (KHTML, like Gecko) Chrome/92.0.4515.131 Safari/537.36",WebKit,Chrome,92.0.4515.131,Windows,10.0,5f461dd6c139dd6b46c7596cbd57cd79
215,1,"""","""","""","""","""",sampler,162,444533,0.0-6.0-156.0,"""","""","""","""","""","""","""","""","""","""","""","""","2021-08-15 21:29:11",77.54.254.9,"Mozilla/5.0 (Windows NT 10.0; Win64; x64) AppleWebKit/537.36 (KHTML, like Gecko) Chrome/92.0.4515.131 Safari/537.36",WebKit,Chrome,92.0.4515.131,Windows,10.0,5f461dd6c139dd6b46c7596cbd57cd79
215,1,"""","""","""","""","""",sampler,163,444533,0.0-6.0-157.0,"""","""","""","""","""","""","""","""","""","""","""","""","2021-08-15 21:29:11",77.54.254.9,"Mozilla/5.0 (Windows NT 10.0; Win64; x64) AppleWebKit/537.36 (KHTML, like Gecko) Chrome/92.0.4515.131 Safari/537.36",WebKit,Chrome,92.0.4515.131,Windows,10.0,5f461dd6c139dd6b46c7596cbd57cd79
215,1,"""","""","""","""","""",sampler,164,444533,0.0-6.0-158.0,"""","""","""","""","""","""","""","""","""","""","""","""","2021-08-15 21:29:11",77.54.254.9,"Mozilla/5.0 (Windows NT 10.0; Win64; x64) AppleWebKit/537.36 (KHTML, like Gecko) Chrome/92.0.4515.131 Safari/537.36",WebKit,Chrome,92.0.4515.131,Windows,10.0,5f461dd6c139dd6b46c7596cbd57cd79
215,1,"""","""","""","""","""",sampler,165,444533,0.0-6.0-159.0,"""","""","""","""","""","""","""","""","""","""","""","""","2021-08-15 21:29:11",77.54.254.9,"Mozilla/5.0 (Windows NT 10.0; Win64; x64) AppleWebKit/537.36 (KHTML, like Gecko) Chrome/92.0.4515.131 Safari/537.36",WebKit,Chrome,92.0.4515.131,Windows,10.0,5f461dd6c139dd6b46c7596cbd57cd79
215,1,"""","""","""","""","""",sampler,166,444533,0.0-6.0-160.0,"""","""","""","""","""","""","""","""","""","""","""","""","2021-08-15 21:29:11",77.54.254.9,"Mozilla/5.0 (Windows NT 10.0; Win64; x64) AppleWebKit/537.36 (KHTML, like Gecko) Chrome/92.0.4515.131 Safari/537.36",WebKit,Chrome,92.0.4515.131,Windows,10.0,5f461dd6c139dd6b46c7596cbd57cd79
215,1,"""","""","""","""","""",sampler,167,444533,0.0-6.0-161.0,"""","""","""","""","""","""","""","""","""","""","""","""","2021-08-15 21:29:11",77.54.254.9,"Mozilla/5.0 (Windows NT 10.0; Win64; x64) AppleWebKit/537.36 (KHTML, like Gecko) Chrome/92.0.4515.131 Safari/537.36",WebKit,Chrome,92.0.4515.131,Windows,10.0,5f461dd6c139dd6b46c7596cbd57cd79
215,1,"""","""","""","""","""",sampler,168,444533,0.0-6.0-162.0,"""","""","""","""","""","""","""","""","""","""","""","""","2021-08-15 21:29:11",77.54.254.9,"Mozilla/5.0 (Windows NT 10.0; Win64; x64) AppleWebKit/537.36 (KHTML, like Gecko) Chrome/92.0.4515.131 Safari/537.36",WebKit,Chrome,92.0.4515.131,Windows,10.0,5f461dd6c139dd6b46c7596cbd57cd79
215,1,"""","""","""","""","""",sampler,169,444534,0.0-6.0-163.0,"""","""","""","""","""","""","""","""","""","""","""","""","2021-08-15 21:29:11",77.54.254.9,"Mozilla/5.0 (Windows NT 10.0; Win64; x64) AppleWebKit/537.36 (KHTML, like Gecko) Chrome/92.0.4515.131 Safari/537.36",WebKit,Chrome,92.0.4515.131,Windows,10.0,5f461dd6c139dd6b46c7596cbd57cd79
215,1,"""","""","""","""","""",sampler,170,444534,0.0-6.0-164.0,"""","""","""","""","""","""","""","""","""","""","""","""","2021-08-15 21:29:11",77.54.254.9,"Mozilla/5.0 (Windows NT 10.0; Win64; x64) AppleWebKit/537.36 (KHTML, like Gecko) Chrome/92.0.4515.131 Safari/537.36",WebKit,Chrome,92.0.4515.131,Windows,10.0,5f461dd6c139dd6b46c7596cbd57cd79
215,1,"""","""","""","""","""",sampler,171,444534,0.0-6.0-165.0,"""","""","""","""","""","""","""","""","""","""","""","""","2021-08-15 21:29:11",77.54.254.9,"Mozilla/5.0 (Windows NT 10.0; Win64; x64) AppleWebKit/537.36 (KHTML, like Gecko) Chrome/92.0.4515.131 Safari/537.36",WebKit,Chrome,92.0.4515.131,Windows,10.0,5f461dd6c139dd6b46c7596cbd57cd79
215,1,"""","""","""","""","""",sampler,172,444534,0.0-6.0-166.0,"""","""","""","""","""","""","""","""","""","""","""","""","2021-08-15 21:29:11",77.54.254.9,"Mozilla/5.0 (Windows NT 10.0; Win64; x64) AppleWebKit/537.36 (KHTML, like Gecko) Chrome/92.0.4515.131 Safari/537.36",WebKit,Chrome,92.0.4515.131,Windows,10.0,5f461dd6c139dd6b46c7596cbd57cd79
215,1,"""","""","""","""","""",sampler,173,444534,0.0-6.0-167.0,"""","""","""","""","""","""","""","""","""","""","""","""","2021-08-15 21:29:11",77.54.254.9,"Mozilla/5.0 (Windows NT 10.0; Win64; x64) AppleWebKit/537.36 (KHTML, like Gecko) Chrome/92.0.4515.131 Safari/537.36",WebKit,Chrome,92.0.4515.131,Windows,10.0,5f461dd6c139dd6b46c7596cbd57cd79
215,1,"""","""","""","""","""",sampler,174,444534,0.0-6.0-168.0,"""","""","""","""","""","""","""","""","""","""","""","""","2021-08-15 21:29:11",77.54.254.9,"Mozilla/5.0 (Windows NT 10.0; Win64; x64) AppleWebKit/537.36 (KHTML, like Gecko) Chrome/92.0.4515.131 Safari/537.36",WebKit,Chrome,92.0.4515.131,Windows,10.0,5f461dd6c139dd6b46c7596cbd57cd79
215,1,"""","""","""","""","""",sampler,175,444534,0.0-6.0-169.0,"""","""","""","""","""","""","""","""","""","""","""","""","2021-08-15 21:29:11",77.54.254.9,"Mozilla/5.0 (Windows NT 10.0; Win64; x64) AppleWebKit/537.36 (KHTML, like Gecko) Chrome/92.0.4515.131 Safari/537.36",WebKit,Chrome,92.0.4515.131,Windows,10.0,5f461dd6c139dd6b46c7596cbd57cd79
215,1,"""","""","""","""","""",sampler,176,444534,0.0-6.0-170.0,"""","""","""","""","""","""","""","""","""","""","""","""","2021-08-15 21:29:11",77.54.254.9,"Mozilla/5.0 (Windows NT 10.0; Win64; x64) AppleWebKit/537.36 (KHTML, like Gecko) Chrome/92.0.4515.131 Safari/537.36",WebKit,Chrome,92.0.4515.131,Windows,10.0,5f461dd6c139dd6b46c7596cbd57cd79
215,1,"""","""","""","""","""",sampler,177,444534,0.0-6.0-171.0,"""","""","""","""","""","""","""","""","""","""","""","""","2021-08-15 21:29:11",77.54.254.9,"Mozilla/5.0 (Windows NT 10.0; Win64; x64) AppleWebKit/537.36 (KHTML, like Gecko) Chrome/92.0.4515.131 Safari/537.36",WebKit,Chrome,92.0.4515.131,Windows,10.0,5f461dd6c139dd6b46c7596cbd57cd79
215,1,"""","""","""","""","""",sampler,178,444534,0.0-6.0-172.0,"""","""","""","""","""","""","""","""","""","""","""","""","2021-08-15 21:29:11",77.54.254.9,"Mozilla/5.0 (Windows NT 10.0; Win64; x64) AppleWebKit/537.36 (KHTML, like Gecko) Chrome/92.0.4515.131 Safari/537.36",WebKit,Chrome,92.0.4515.131,Windows,10.0,5f461dd6c139dd6b46c7596cbd57cd79
215,1,"""","""","""","""","""",sampler,179,444534,0.0-6.0-173.0,"""","""","""","""","""","""","""","""","""","""","""","""","2021-08-15 21:29:11",77.54.254.9,"Mozilla/5.0 (Windows NT 10.0; Win64; x64) AppleWebKit/537.36 (KHTML, like Gecko) Chrome/92.0.4515.131 Safari/537.36",WebKit,Chrome,92.0.4515.131,Windows,10.0,5f461dd6c139dd6b46c7596cbd57cd79
215,1,"""","""","""","""","""",sampler,180,444534,0.0-6.0-174.0,"""","""","""","""","""","""","""","""","""","""","""","""","2021-08-15 21:29:11",77.54.254.9,"Mozilla/5.0 (Windows NT 10.0; Win64; x64) AppleWebKit/537.36 (KHTML, like Gecko) Chrome/92.0.4515.131 Safari/537.36",WebKit,Chrome,92.0.4515.131,Windows,10.0,5f461dd6c139dd6b46c7596cbd57cd79
215,1,"""","""","""","""","""",sampler,181,444534,0.0-6.0-175.0,"""","""","""","""","""","""","""","""","""","""","""","""","2021-08-15 21:29:11",77.54.254.9,"Mozilla/5.0 (Windows NT 10.0; Win64; x64) AppleWebKit/537.36 (KHTML, like Gecko) Chrome/92.0.4515.131 Safari/537.36",WebKit,Chrome,92.0.4515.131,Windows,10.0,5f461dd6c139dd6b46c7596cbd57cd79
215,1,"""","""","""","""","""",sampler,182,444535,0.0-6.0-176.0,"""","""","""","""","""","""","""","""","""","""","""","""","2021-08-15 21:29:11",77.54.254.9,"Mozilla/5.0 (Windows NT 10.0; Win64; x64) AppleWebKit/537.36 (KHTML, like Gecko) Chrome/92.0.4515.131 Safari/537.36",WebKit,Chrome,92.0.4515.131,Windows,10.0,5f461dd6c139dd6b46c7596cbd57cd79
215,1,"""","""","""","""","""",sampler,183,444535,0.0-6.0-177.0,"""","""","""","""","""","""","""","""","""","""","""","""","2021-08-15 21:29:11",77.54.254.9,"Mozilla/5.0 (Windows NT 10.0; Win64; x64) AppleWebKit/537.36 (KHTML, like Gecko) Chrome/92.0.4515.131 Safari/537.36",WebKit,Chrome,92.0.4515.131,Windows,10.0,5f461dd6c139dd6b46c7596cbd57cd79
215,1,"""","""","""","""","""",sampler,184,444535,0.0-6.0-178.0,"""","""","""","""","""","""","""","""","""","""","""","""","2021-08-15 21:29:11",77.54.254.9,"Mozilla/5.0 (Windows NT 10.0; Win64; x64) AppleWebKit/537.36 (KHTML, like Gecko) Chrome/92.0.4515.131 Safari/537.36",WebKit,Chrome,92.0.4515.131,Windows,10.0,5f461dd6c139dd6b46c7596cbd57cd79
215,1,"""","""","""","""","""",sampler,185,444535,0.0-6.0-179.0,"""","""","""","""","""","""","""","""","""","""","""","""","2021-08-15 21:29:11",77.54.254.9,"Mozilla/5.0 (Windows NT 10.0; Win64; x64) AppleWebKit/537.36 (KHTML, like Gecko) Chrome/92.0.4515.131 Safari/537.36",WebKit,Chrome,92.0.4515.131,Windows,10.0,5f461dd6c139dd6b46c7596cbd57cd79
215,1,"""","""","""","""","""",sampler,186,444535,0.0-6.0-180.0,"""","""","""","""","""","""","""","""","""","""","""","""","2021-08-15 21:29:11",77.54.254.9,"Mozilla/5.0 (Windows NT 10.0; Win64; x64) AppleWebKit/537.36 (KHTML, like Gecko) Chrome/92.0.4515.131 Safari/537.36",WebKit,Chrome,92.0.4515.131,Windows,10.0,5f461dd6c139dd6b46c7596cbd57cd79
215,1,"""","""","""","""","""",sampler,187,444535,0.0-6.0-181.0,"""","""","""","""","""","""","""","""","""","""","""","""","2021-08-15 21:29:11",77.54.254.9,"Mozilla/5.0 (Windows NT 10.0; Win64; x64) AppleWebKit/537.36 (KHTML, like Gecko) Chrome/92.0.4515.131 Safari/537.36",WebKit,Chrome,92.0.4515.131,Windows,10.0,5f461dd6c139dd6b46c7596cbd57cd79
215,1,"""","""","""","""","""",sampler,188,444535,0.0-6.0-182.0,"""","""","""","""","""","""","""","""","""","""","""","""","2021-08-15 21:29:11",77.54.254.9,"Mozilla/5.0 (Windows NT 10.0; Win64; x64) AppleWebKit/537.36 (KHTML, like Gecko) Chrome/92.0.4515.131 Safari/537.36",WebKit,Chrome,92.0.4515.131,Windows,10.0,5f461dd6c139dd6b46c7596cbd57cd79
215,1,"""","""","""","""","""",sampler,189,444536,0.0-6.0-183.0,"""","""","""","""","""","""","""","""","""","""","""","""","2021-08-15 21:29:11",77.54.254.9,"Mozilla/5.0 (Windows NT 10.0; Win64; x64) AppleWebKit/537.36 (KHTML, like Gecko) Chrome/92.0.4515.131 Safari/537.36",WebKit,Chrome,92.0.4515.131,Windows,10.0,5f461dd6c139dd6b46c7596cbd57cd79
215,1,"""","""","""","""","""",sampler,190,444536,0.0-6.0-184.0,"""","""","""","""","""","""","""","""","""","""","""","""","2021-08-15 21:29:11",77.54.254.9,"Mozilla/5.0 (Windows NT 10.0; Win64; x64) AppleWebKit/537.36 (KHTML, like Gecko) Chrome/92.0.4515.131 Safari/537.36",WebKit,Chrome,92.0.4515.131,Windows,10.0,5f461dd6c139dd6b46c7596cbd57cd79
215,1,"""","""","""","""","""",sampler,191,444536,0.0-6.0-185.0,"""","""","""","""","""","""","""","""","""","""","""","""","2021-08-15 21:29:11",77.54.254.9,"Mozilla/5.0 (Windows NT 10.0; Win64; x64) AppleWebKit/537.36 (KHTML, like Gecko) Chrome/92.0.4515.131 Safari/537.36",WebKit,Chrome,92.0.4515.131,Windows,10.0,5f461dd6c139dd6b46c7596cbd57cd79
215,1,"""","""","""","""","""",sampler,192,444536,0.0-6.0-186.0,"""","""","""","""","""","""","""","""","""","""","""","""","2021-08-15 21:29:11",77.54.254.9,"Mozilla/5.0 (Windows NT 10.0; Win64; x64) AppleWebKit/537.36 (KHTML, like Gecko) Chrome/92.0.4515.131 Safari/537.36",WebKit,Chrome,92.0.4515.131,Windows,10.0,5f461dd6c139dd6b46c7596cbd57cd79
215,1,"""","""","""","""","""",sampler,193,444536,0.0-6.0-187.0,"""","""","""","""","""","""","""","""","""","""","""","""","2021-08-15 21:29:11",77.54.254.9,"Mozilla/5.0 (Windows NT 10.0; Win64; x64) AppleWebKit/537.36 (KHTML, like Gecko) Chrome/92.0.4515.131 Safari/537.36",WebKit,Chrome,92.0.4515.131,Windows,10.0,5f461dd6c139dd6b46c7596cbd57cd79
215,1,"""","""","""","""","""",sampler,194,444536,0.0-6.0-188.0,"""","""","""","""","""","""","""","""","""","""","""","""","2021-08-15 21:29:11",77.54.254.9,"Mozilla/5.0 (Windows NT 10.0; Win64; x64) AppleWebKit/537.36 (KHTML, like Gecko) Chrome/92.0.4515.131 Safari/537.36",WebKit,Chrome,92.0.4515.131,Windows,10.0,5f461dd6c139dd6b46c7596cbd57cd79
215,1,"""","""","""","""","""",sampler,195,444536,0.0-6.0-189.0,"""","""","""","""","""","""","""","""","""","""","""","""","2021-08-15 21:29:11",77.54.254.9,"Mozilla/5.0 (Windows NT 10.0; Win64; x64) AppleWebKit/537.36 (KHTML, like Gecko) Chrome/92.0.4515.131 Safari/537.36",WebKit,Chrome,92.0.4515.131,Windows,10.0,5f461dd6c139dd6b46c7596cbd57cd79
215,1,"""","""","""","""","""",sampler,196,444536,0.0-6.0-190.0,"""","""","""","""","""","""","""","""","""","""","""","""","2021-08-15 21:29:11",77.54.254.9,"Mozilla/5.0 (Windows NT 10.0; Win64; x64) AppleWebKit/537.36 (KHTML, like Gecko) Chrome/92.0.4515.131 Safari/537.36",WebKit,Chrome,92.0.4515.131,Windows,10.0,5f461dd6c139dd6b46c7596cbd57cd79
215,1,"""","""","""","""","""",sampler,197,444536,0.0-6.0-191.0,"""","""","""","""","""","""","""","""","""","""","""","""","2021-08-15 21:29:11",77.54.254.9,"Mozilla/5.0 (Windows NT 10.0; Win64; x64) AppleWebKit/537.36 (KHTML, like Gecko) Chrome/92.0.4515.131 Safari/537.36",WebKit,Chrome,92.0.4515.131,Windows,10.0,5f461dd6c139dd6b46c7596cbd57cd79
215,1,"""","""","""","""","""",sampler,198,444536,0.0-6.0-192.0,"""","""","""","""","""","""","""","""","""","""","""","""","2021-08-15 21:29:11",77.54.254.9,"Mozilla/5.0 (Windows NT 10.0; Win64; x64) AppleWebKit/537.36 (KHTML, like Gecko) Chrome/92.0.4515.131 Safari/537.36",WebKit,Chrome,92.0.4515.131,Windows,10.0,5f461dd6c139dd6b46c7596cbd57cd79
215,1,"""","""","""","""","""",sampler,199,444536,0.0-6.0-193.0,"""","""","""","""","""","""","""","""","""","""","""","""","2021-08-15 21:29:11",77.54.254.9,"Mozilla/5.0 (Windows NT 10.0; Win64; x64) AppleWebKit/537.36 (KHTML, like Gecko) Chrome/92.0.4515.131 Safari/537.36",WebKit,Chrome,92.0.4515.131,Windows,10.0,5f461dd6c139dd6b46c7596cbd57cd79
215,1,"""","""","""","""","""",sampler,200,444536,0.0-6.0-194.0,"""","""","""","""","""","""","""","""","""","""","""","""","2021-08-15 21:29:11",77.54.254.9,"Mozilla/5.0 (Windows NT 10.0; Win64; x64) AppleWebKit/537.36 (KHTML, like Gecko) Chrome/92.0.4515.131 Safari/537.36",WebKit,Chrome,92.0.4515.131,Windows,10.0,5f461dd6c139dd6b46c7596cbd57cd79
215,1,"""","""","""","""","""",sampler,201,444536,0.0-6.0-195.0,"""","""","""","""","""","""","""","""","""","""","""","""","2021-08-15 21:29:11",77.54.254.9,"Mozilla/5.0 (Windows NT 10.0; Win64; x64) AppleWebKit/537.36 (KHTML, like Gecko) Chrome/92.0.4515.131 Safari/537.36",WebKit,Chrome,92.0.4515.131,Windows,10.0,5f461dd6c139dd6b46c7596cbd57cd79
215,1,"""","""","""","""","""",sampler,202,444537,0.0-6.0-196.0,"""","""","""","""","""","""","""","""","""","""","""","""","2021-08-15 21:29:11",77.54.254.9,"Mozilla/5.0 (Windows NT 10.0; Win64; x64) AppleWebKit/537.36 (KHTML, like Gecko) Chrome/92.0.4515.131 Safari/537.36",WebKit,Chrome,92.0.4515.131,Windows,10.0,5f461dd6c139dd6b46c7596cbd57cd79
215,1,"""","""","""","""","""",sampler,203,444537,0.0-6.0-197.0,"""","""","""","""","""","""","""","""","""","""","""","""","2021-08-15 21:29:11",77.54.254.9,"Mozilla/5.0 (Windows NT 10.0; Win64; x64) AppleWebKit/537.36 (KHTML, like Gecko) Chrome/92.0.4515.131 Safari/537.36",WebKit,Chrome,92.0.4515.131,Windows,10.0,5f461dd6c139dd6b46c7596cbd57cd79
215,1,"""","""","""","""","""",sampler,204,444537,0.0-6.0-198.0,"""","""","""","""","""","""","""","""","""","""","""","""","2021-08-15 21:29:11",77.54.254.9,"Mozilla/5.0 (Windows NT 10.0; Win64; x64) AppleWebKit/537.36 (KHTML, like Gecko) Chrome/92.0.4515.131 Safari/537.36",WebKit,Chrome,92.0.4515.131,Windows,10.0,5f461dd6c139dd6b46c7596cbd57cd79
215,1,"""","""","""","""","""",sampler,205,444537,0.0-6.0-199.0,"""","""","""","""","""","""","""","""","""","""","""","""","2021-08-15 21:29:11",77.54.254.9,"Mozilla/5.0 (Windows NT 10.0; Win64; x64) AppleWebKit/537.36 (KHTML, like Gecko) Chrome/92.0.4515.131 Safari/537.36",WebKit,Chrome,92.0.4515.131,Windows,10.0,5f461dd6c139dd6b46c7596cbd57cd79
215,1,"""","""","""","""","""",sampler,206,444537,0.0-6.0-200.0,"""","""","""","""","""","""","""","""","""","""","""","""","2021-08-15 21:29:11",77.54.254.9,"Mozilla/5.0 (Windows NT 10.0; Win64; x64) AppleWebKit/537.36 (KHTML, like Gecko) Chrome/92.0.4515.131 Safari/537.36",WebKit,Chrome,92.0.4515.131,Windows,10.0,5f461dd6c139dd6b46c7596cbd57cd79
215,1,"""","""","""","""","""",sampler,207,444537,0.0-6.0-201.0,"""","""","""","""","""","""","""","""","""","""","""","""","2021-08-15 21:29:11",77.54.254.9,"Mozilla/5.0 (Windows NT 10.0; Win64; x64) AppleWebKit/537.36 (KHTML, like Gecko) Chrome/92.0.4515.131 Safari/537.36",WebKit,Chrome,92.0.4515.131,Windows,10.0,5f461dd6c139dd6b46c7596cbd57cd79
215,1,"""","""","""","""","""",sampler,208,444537,0.0-6.0-202.0,"""","""","""","""","""","""","""","""","""","""","""","""","2021-08-15 21:29:11",77.54.254.9,"Mozilla/5.0 (Windows NT 10.0; Win64; x64) AppleWebKit/537.36 (KHTML, like Gecko) Chrome/92.0.4515.131 Safari/537.36",WebKit,Chrome,92.0.4515.131,Windows,10.0,5f461dd6c139dd6b46c7596cbd57cd79
215,1,"""","""","""","""","""",sampler,209,444537,0.0-6.0-203.0,"""","""","""","""","""","""","""","""","""","""","""","""","2021-08-15 21:29:11",77.54.254.9,"Mozilla/5.0 (Windows NT 10.0; Win64; x64) AppleWebKit/537.36 (KHTML, like Gecko) Chrome/92.0.4515.131 Safari/537.36",WebKit,Chrome,92.0.4515.131,Windows,10.0,5f461dd6c139dd6b46c7596cbd57cd79
215,1,"""","""","""","""","""",sampler,210,444537,0.0-6.0-204.0,"""","""","""","""","""","""","""","""","""","""","""","""","2021-08-15 21:29:11",77.54.254.9,"Mozilla/5.0 (Windows NT 10.0; Win64; x64) AppleWebKit/537.36 (KHTML, like Gecko) Chrome/92.0.4515.131 Safari/537.36",WebKit,Chrome,92.0.4515.131,Windows,10.0,5f461dd6c139dd6b46c7596cbd57cd79
215,1,"""","""","""","""","""",sampler,211,444537,0.0-6.0-205.0,"""","""","""","""","""","""","""","""","""","""","""","""","2021-08-15 21:29:11",77.54.254.9,"Mozilla/5.0 (Windows NT 10.0; Win64; x64) AppleWebKit/537.36 (KHTML, like Gecko) Chrome/92.0.4515.131 Safari/537.36",WebKit,Chrome,92.0.4515.131,Windows,10.0,5f461dd6c139dd6b46c7596cbd57cd79
215,1,"""","""","""","""","""",sampler,212,444537,0.0-6.0-206.0,"""","""","""","""","""","""","""","""","""","""","""","""","2021-08-15 21:29:11",77.54.254.9,"Mozilla/5.0 (Windows NT 10.0; Win64; x64) AppleWebKit/537.36 (KHTML, like Gecko) Chrome/92.0.4515.131 Safari/537.36",WebKit,Chrome,92.0.4515.131,Windows,10.0,5f461dd6c139dd6b46c7596cbd57cd79
215,1,"""","""","""","""","""",sampler,213,444537,0.0-6.0-207.0,"""","""","""","""","""","""","""","""","""","""","""","""","2021-08-15 21:29:11",77.54.254.9,"Mozilla/5.0 (Windows NT 10.0; Win64; x64) AppleWebKit/537.36 (KHTML, like Gecko) Chrome/92.0.4515.131 Safari/537.36",WebKit,Chrome,92.0.4515.131,Windows,10.0,5f461dd6c139dd6b46c7596cbd57cd79
215,1,"""","""","""","""","""",sampler,214,444537,0.0-6.0-208.0,"""","""","""","""","""","""","""","""","""","""","""","""","2021-08-15 21:29:11",77.54.254.9,"Mozilla/5.0 (Windows NT 10.0; Win64; x64) AppleWebKit/537.36 (KHTML, like Gecko) Chrome/92.0.4515.131 Safari/537.36",WebKit,Chrome,92.0.4515.131,Windows,10.0,5f461dd6c139dd6b46c7596cbd57cd79
215,1,"""","""","""","""","""",sampler,215,444537,0.0-6.0-209.0,"""","""","""","""","""","""","""","""","""","""","""","""","2021-08-15 21:29:11",77.54.254.9,"Mozilla/5.0 (Windows NT 10.0; Win64; x64) AppleWebKit/537.36 (KHTML, like Gecko) Chrome/92.0.4515.131 Safari/537.36",WebKit,Chrome,92.0.4515.131,Windows,10.0,5f461dd6c139dd6b46c7596cbd57cd79
215,1,"""","""","""","""","""",sampler,216,444538,0.0-6.0-210.0,"""","""","""","""","""","""","""","""","""","""","""","""","2021-08-15 21:29:11",77.54.254.9,"Mozilla/5.0 (Windows NT 10.0; Win64; x64) AppleWebKit/537.36 (KHTML, like Gecko) Chrome/92.0.4515.131 Safari/537.36",WebKit,Chrome,92.0.4515.131,Windows,10.0,5f461dd6c139dd6b46c7596cbd57cd79
215,1,"""","""","""","""","""",sampler,217,444538,0.0-6.0-211.0,"""","""","""","""","""","""","""","""","""","""","""","""","2021-08-15 21:29:11",77.54.254.9,"Mozilla/5.0 (Windows NT 10.0; Win64; x64) AppleWebKit/537.36 (KHTML, like Gecko) Chrome/92.0.4515.131 Safari/537.36",WebKit,Chrome,92.0.4515.131,Windows,10.0,5f461dd6c139dd6b46c7596cbd57cd79
215,1,"""","""","""","""","""",sampler,218,444538,0.0-6.0-212.0,"""","""","""","""","""","""","""","""","""","""","""","""","2021-08-15 21:29:11",77.54.254.9,"Mozilla/5.0 (Windows NT 10.0; Win64; x64) AppleWebKit/537.36 (KHTML, like Gecko) Chrome/92.0.4515.131 Safari/537.36",WebKit,Chrome,92.0.4515.131,Windows,10.0,5f461dd6c139dd6b46c7596cbd57cd79
215,1,"""","""","""","""","""",sampler,219,444538,0.0-6.0-213.0,"""","""","""","""","""","""","""","""","""","""","""","""","2021-08-15 21:29:11",77.54.254.9,"Mozilla/5.0 (Windows NT 10.0; Win64; x64) AppleWebKit/537.36 (KHTML, like Gecko) Chrome/92.0.4515.131 Safari/537.36",WebKit,Chrome,92.0.4515.131,Windows,10.0,5f461dd6c139dd6b46c7596cbd57cd79
215,1,"""","""","""","""","""",sampler,220,444538,0.0-6.0-214.0,"""","""","""","""","""","""","""","""","""","""","""","""","2021-08-15 21:29:11",77.54.254.9,"Mozilla/5.0 (Windows NT 10.0; Win64; x64) AppleWebKit/537.36 (KHTML, like Gecko) Chrome/92.0.4515.131 Safari/537.36",WebKit,Chrome,92.0.4515.131,Windows,10.0,5f461dd6c139dd6b46c7596cbd57cd79
215,1,"""","""","""","""","""",sampler,221,444538,0.0-6.0-215.0,"""","""","""","""","""","""","""","""","""","""","""","""","2021-08-15 21:29:11",77.54.254.9,"Mozilla/5.0 (Windows NT 10.0; Win64; x64) AppleWebKit/537.36 (KHTML, like Gecko) Chrome/92.0.4515.131 Safari/537.36",WebKit,Chrome,92.0.4515.131,Windows,10.0,5f461dd6c139dd6b46c7596cbd57cd79
215,1,"""","""","""","""","""",sampler,222,444538,0.0-6.0-216.0,"""","""","""","""","""","""","""","""","""","""","""","""","2021-08-15 21:29:11",77.54.254.9,"Mozilla/5.0 (Windows NT 10.0; Win64; x64) AppleWebKit/537.36 (KHTML, like Gecko) Chrome/92.0.4515.131 Safari/537.36",WebKit,Chrome,92.0.4515.131,Windows,10.0,5f461dd6c139dd6b46c7596cbd57cd79
215,1,"""","""","""","""","""",sampler,223,444538,0.0-6.0-217.0,"""","""","""","""","""","""","""","""","""","""","""","""","2021-08-15 21:29:11",77.54.254.9,"Mozilla/5.0 (Windows NT 10.0; Win64; x64) AppleWebKit/537.36 (KHTML, like Gecko) Chrome/92.0.4515.131 Safari/537.36",WebKit,Chrome,92.0.4515.131,Windows,10.0,5f461dd6c139dd6b46c7596cbd57cd79
215,1,"""","""","""","""","""",sampler,224,444538,0.0-6.0-218.0,"""","""","""","""","""","""","""","""","""","""","""","""","2021-08-15 21:29:11",77.54.254.9,"Mozilla/5.0 (Windows NT 10.0; Win64; x64) AppleWebKit/537.36 (KHTML, like Gecko) Chrome/92.0.4515.131 Safari/537.36",WebKit,Chrome,92.0.4515.131,Windows,10.0,5f461dd6c139dd6b46c7596cbd57cd79
215,1,"""","""","""","""","""",sampler,225,444538,0.0-6.0-219.0,"""","""","""","""","""","""","""","""","""","""","""","""","2021-08-15 21:29:11",77.54.254.9,"Mozilla/5.0 (Windows NT 10.0; Win64; x64) AppleWebKit/537.36 (KHTML, like Gecko) Chrome/92.0.4515.131 Safari/537.36",WebKit,Chrome,92.0.4515.131,Windows,10.0,5f461dd6c139dd6b46c7596cbd57cd79
215,1,"""","""","""","""","""",sampler,226,444538,0.0-6.0-220.0,"""","""","""","""","""","""","""","""","""","""","""","""","2021-08-15 21:29:11",77.54.254.9,"Mozilla/5.0 (Windows NT 10.0; Win64; x64) AppleWebKit/537.36 (KHTML, like Gecko) Chrome/92.0.4515.131 Safari/537.36",WebKit,Chrome,92.0.4515.131,Windows,10.0,5f461dd6c139dd6b46c7596cbd57cd79
215,1,"""","""","""","""","""",sampler,227,444538,0.0-6.0-221.0,"""","""","""","""","""","""","""","""","""","""","""","""","2021-08-15 21:29:11",77.54.254.9,"Mozilla/5.0 (Windows NT 10.0; Win64; x64) AppleWebKit/537.36 (KHTML, like Gecko) Chrome/92.0.4515.131 Safari/537.36",WebKit,Chrome,92.0.4515.131,Windows,10.0,5f461dd6c139dd6b46c7596cbd57cd79
215,1,"""","""","""","""","""",sampler,228,444538,0.0-6.0-222.0,"""","""","""","""","""","""","""","""","""","""","""","""","2021-08-15 21:29:11",77.54.254.9,"Mozilla/5.0 (Windows NT 10.0; Win64; x64) AppleWebKit/537.36 (KHTML, like Gecko) Chrome/92.0.4515.131 Safari/537.36",WebKit,Chrome,92.0.4515.131,Windows,10.0,5f461dd6c139dd6b46c7596cbd57cd79
215,1,"""","""","""","""","""",sampler,229,444539,0.0-6.0-223.0,"""","""","""","""","""","""","""","""","""","""","""","""","2021-08-15 21:29:11",77.54.254.9,"Mozilla/5.0 (Windows NT 10.0; Win64; x64) AppleWebKit/537.36 (KHTML, like Gecko) Chrome/92.0.4515.131 Safari/537.36",WebKit,Chrome,92.0.4515.131,Windows,10.0,5f461dd6c139dd6b46c7596cbd57cd79
215,1,"""","""","""","""","""",sampler,230,444539,0.0-6.0-224.0,"""","""","""","""","""","""","""","""","""","""","""","""","2021-08-15 21:29:11",77.54.254.9,"Mozilla/5.0 (Windows NT 10.0; Win64; x64) AppleWebKit/537.36 (KHTML, like Gecko) Chrome/92.0.4515.131 Safari/537.36",WebKit,Chrome,92.0.4515.131,Windows,10.0,5f461dd6c139dd6b46c7596cbd57cd79
215,1,"""","""","""","""","""",sampler,231,444539,0.0-6.0-225.0,"""","""","""","""","""","""","""","""","""","""","""","""","2021-08-15 21:29:11",77.54.254.9,"Mozilla/5.0 (Windows NT 10.0; Win64; x64) AppleWebKit/537.36 (KHTML, like Gecko) Chrome/92.0.4515.131 Safari/537.36",WebKit,Chrome,92.0.4515.131,Windows,10.0,5f461dd6c139dd6b46c7596cbd57cd79
215,1,"""","""","""","""","""",sampler,232,444539,0.0-6.0-226.0,"""","""","""","""","""","""","""","""","""","""","""","""","2021-08-15 21:29:11",77.54.254.9,"Mozilla/5.0 (Windows NT 10.0; Win64; x64) AppleWebKit/537.36 (KHTML, like Gecko) Chrome/92.0.4515.131 Safari/537.36",WebKit,Chrome,92.0.4515.131,Windows,10.0,5f461dd6c139dd6b46c7596cbd57cd79
215,1,"""","""","""","""","""",sampler,233,444539,0.0-6.0-227.0,"""","""","""","""","""","""","""","""","""","""","""","""","2021-08-15 21:29:11",77.54.254.9,"Mozilla/5.0 (Windows NT 10.0; Win64; x64) AppleWebKit/537.36 (KHTML, like Gecko) Chrome/92.0.4515.131 Safari/537.36",WebKit,Chrome,92.0.4515.131,Windows,10.0,5f461dd6c139dd6b46c7596cbd57cd79
215,1,"""","""","""","""","""",sampler,234,444539,0.0-6.0-228.0,"""","""","""","""","""","""","""","""","""","""","""","""","2021-08-15 21:29:11",77.54.254.9,"Mozilla/5.0 (Windows NT 10.0; Win64; x64) AppleWebKit/537.36 (KHTML, like Gecko) Chrome/92.0.4515.131 Safari/537.36",WebKit,Chrome,92.0.4515.131,Windows,10.0,5f461dd6c139dd6b46c7596cbd57cd79
215,1,"""","""","""","""","""",sampler,235,444539,0.0-6.0-229.0,"""","""","""","""","""","""","""","""","""","""","""","""","2021-08-15 21:29:11",77.54.254.9,"Mozilla/5.0 (Windows NT 10.0; Win64; x64) AppleWebKit/537.36 (KHTML, like Gecko) Chrome/92.0.4515.131 Safari/537.36",WebKit,Chrome,92.0.4515.131,Windows,10.0,5f461dd6c139dd6b46c7596cbd57cd79
215,1,"""","""","""","""","""",sampler,236,444539,0.0-6.0-230.0,"""","""","""","""","""","""","""","""","""","""","""","""","2021-08-15 21:29:11",77.54.254.9,"Mozilla/5.0 (Windows NT 10.0; Win64; x64) AppleWebKit/537.36 (KHTML, like Gecko) Chrome/92.0.4515.131 Safari/537.36",WebKit,Chrome,92.0.4515.131,Windows,10.0,5f461dd6c139dd6b46c7596cbd57cd79
215,1,"""","""","""","""","""",sampler,237,444539,0.0-6.0-231.0,"""","""","""","""","""","""","""","""","""","""","""","""","2021-08-15 21:29:11",77.54.254.9,"Mozilla/5.0 (Windows NT 10.0; Win64; x64) AppleWebKit/537.36 (KHTML, like Gecko) Chrome/92.0.4515.131 Safari/537.36",WebKit,Chrome,92.0.4515.131,Windows,10.0,5f461dd6c139dd6b46c7596cbd57cd79
215,1,"""","""","""","""","""",sampler,238,444539,0.0-6.0-232.0,"""","""","""","""","""","""","""","""","""","""","""","""","2021-08-15 21:29:11",77.54.254.9,"Mozilla/5.0 (Windows NT 10.0; Win64; x64) AppleWebKit/537.36 (KHTML, like Gecko) Chrome/92.0.4515.131 Safari/537.36",WebKit,Chrome,92.0.4515.131,Windows,10.0,5f461dd6c139dd6b46c7596cbd57cd79
215,1,"""","""","""","""","""",sampler,239,444539,0.0-6.0-233.0,"""","""","""","""","""","""","""","""","""","""","""","""","2021-08-15 21:29:11",77.54.254.9,"Mozilla/5.0 (Windows NT 10.0; Win64; x64) AppleWebKit/537.36 (KHTML, like Gecko) Chrome/92.0.4515.131 Safari/537.36",WebKit,Chrome,92.0.4515.131,Windows,10.0,5f461dd6c139dd6b46c7596cbd57cd79
215,1,"""","""","""","""","""",sampler,240,444539,0.0-6.0-234.0,"""","""","""","""","""","""","""","""","""","""","""","""","2021-08-15 21:29:11",77.54.254.9,"Mozilla/5.0 (Windows NT 10.0; Win64; x64) AppleWebKit/537.36 (KHTML, like Gecko) Chrome/92.0.4515.131 Safari/537.36",WebKit,Chrome,92.0.4515.131,Windows,10.0,5f461dd6c139dd6b46c7596cbd57cd79
215,1,"""","""","""","""","""",sampler,241,444539,0.0-6.0-235.0,"""","""","""","""","""","""","""","""","""","""","""","""","2021-08-15 21:29:11",77.54.254.9,"Mozilla/5.0 (Windows NT 10.0; Win64; x64) AppleWebKit/537.36 (KHTML, like Gecko) Chrome/92.0.4515.131 Safari/537.36",WebKit,Chrome,92.0.4515.131,Windows,10.0,5f461dd6c139dd6b46c7596cbd57cd79
215,1,"""","""","""","""","""",sampler,242,444540,0.0-6.0-236.0,"""","""","""","""","""","""","""","""","""","""","""","""","2021-08-15 21:29:11",77.54.254.9,"Mozilla/5.0 (Windows NT 10.0; Win64; x64) AppleWebKit/537.36 (KHTML, like Gecko) Chrome/92.0.4515.131 Safari/537.36",WebKit,Chrome,92.0.4515.131,Windows,10.0,5f461dd6c139dd6b46c7596cbd57cd79
215,1,"""","""","""","""","""",sampler,243,444540,0.0-6.0-237.0,"""","""","""","""","""","""","""","""","""","""","""","""","2021-08-15 21:29:11",77.54.254.9,"Mozilla/5.0 (Windows NT 10.0; Win64; x64) AppleWebKit/537.36 (KHTML, like Gecko) Chrome/92.0.4515.131 Safari/537.36",WebKit,Chrome,92.0.4515.131,Windows,10.0,5f461dd6c139dd6b46c7596cbd57cd79
215,1,"""","""","""","""","""",sampler,244,444540,0.0-6.0-238.0,"""","""","""","""","""","""","""","""","""","""","""","""","2021-08-15 21:29:11",77.54.254.9,"Mozilla/5.0 (Windows NT 10.0; Win64; x64) AppleWebKit/537.36 (KHTML, like Gecko) Chrome/92.0.4515.131 Safari/537.36",WebKit,Chrome,92.0.4515.131,Windows,10.0,5f461dd6c139dd6b46c7596cbd57cd79
215,1,"""","""","""","""","""",sampler,245,444540,0.0-6.0-239.0,"""","""","""","""","""","""","""","""","""","""","""","""","2021-08-15 21:29:11",77.54.254.9,"Mozilla/5.0 (Windows NT 10.0; Win64; x64) AppleWebKit/537.36 (KHTML, like Gecko) Chrome/92.0.4515.131 Safari/537.36",WebKit,Chrome,92.0.4515.131,Windows,10.0,5f461dd6c139dd6b46c7596cbd57cd79
215,1,"""","""","""","""","""",sampler,246,444540,0.0-6.0-240.0,"""","""","""","""","""","""","""","""","""","""","""","""","2021-08-15 21:29:11",77.54.254.9,"Mozilla/5.0 (Windows NT 10.0; Win64; x64) AppleWebKit/537.36 (KHTML, like Gecko) Chrome/92.0.4515.131 Safari/537.36",WebKit,Chrome,92.0.4515.131,Windows,10.0,5f461dd6c139dd6b46c7596cbd57cd79
215,1,"""","""","""","""","""",sampler,247,444540,0.0-6.0-241.0,"""","""","""","""","""","""","""","""","""","""","""","""","2021-08-15 21:29:11",77.54.254.9,"Mozilla/5.0 (Windows NT 10.0; Win64; x64) AppleWebKit/537.36 (KHTML, like Gecko) Chrome/92.0.4515.131 Safari/537.36",WebKit,Chrome,92.0.4515.131,Windows,10.0,5f461dd6c139dd6b46c7596cbd57cd79
215,1,"""","""","""","""","""",sampler,248,444540,0.0-6.0-242.0,"""","""","""","""","""","""","""","""","""","""","""","""","2021-08-15 21:29:11",77.54.254.9,"Mozilla/5.0 (Windows NT 10.0; Win64; x64) AppleWebKit/537.36 (KHTML, like Gecko) Chrome/92.0.4515.131 Safari/537.36",WebKit,Chrome,92.0.4515.131,Windows,10.0,5f461dd6c139dd6b46c7596cbd57cd79
215,1,"""","""","""","""","""",sampler,249,444540,0.0-6.0-243.0,"""","""","""","""","""","""","""","""","""","""","""","""","2021-08-15 21:29:11",77.54.254.9,"Mozilla/5.0 (Windows NT 10.0; Win64; x64) AppleWebKit/537.36 (KHTML, like Gecko) Chrome/92.0.4515.131 Safari/537.36",WebKit,Chrome,92.0.4515.131,Windows,10.0,5f461dd6c139dd6b46c7596cbd57cd79
215,1,"""","""","""","""","""",sampler,250,444540,0.0-6.0-244.0,"""","""","""","""","""","""","""","""","""","""","""","""","2021-08-15 21:29:11",77.54.254.9,"Mozilla/5.0 (Windows NT 10.0; Win64; x64) AppleWebKit/537.36 (KHTML, like Gecko) Chrome/92.0.4515.131 Safari/537.36",WebKit,Chrome,92.0.4515.131,Windows,10.0,5f461dd6c139dd6b46c7596cbd57cd79
215,1,"""","""","""","""","""",sampler,251,444540,0.0-6.0-245.0,"""","""","""","""","""","""","""","""","""","""","""","""","2021-08-15 21:29:11",77.54.254.9,"Mozilla/5.0 (Windows NT 10.0; Win64; x64) AppleWebKit/537.36 (KHTML, like Gecko) Chrome/92.0.4515.131 Safari/537.36",WebKit,Chrome,92.0.4515.131,Windows,10.0,5f461dd6c139dd6b46c7596cbd57cd79
215,1,"""","""","""","""","""",sampler,252,444541,0.0-6.0-246.0,"""","""","""","""","""","""","""","""","""","""","""","""","2021-08-15 21:29:11",77.54.254.9,"Mozilla/5.0 (Windows NT 10.0; Win64; x64) AppleWebKit/537.36 (KHTML, like Gecko) Chrome/92.0.4515.131 Safari/537.36",WebKit,Chrome,92.0.4515.131,Windows,10.0,5f461dd6c139dd6b46c7596cbd57cd79
215,1,"""","""","""","""","""",sampler,253,444541,0.0-6.0-247.0,"""","""","""","""","""","""","""","""","""","""","""","""","2021-08-15 21:29:11",77.54.254.9,"Mozilla/5.0 (Windows NT 10.0; Win64; x64) AppleWebKit/537.36 (KHTML, like Gecko) Chrome/92.0.4515.131 Safari/537.36",WebKit,Chrome,92.0.4515.131,Windows,10.0,5f461dd6c139dd6b46c7596cbd57cd79
215,1,"""","""","""","""","""",sampler,254,444541,0.0-6.0-248.0,"""","""","""","""","""","""","""","""","""","""","""","""","2021-08-15 21:29:11",77.54.254.9,"Mozilla/5.0 (Windows NT 10.0; Win64; x64) AppleWebKit/537.36 (KHTML, like Gecko) Chrome/92.0.4515.131 Safari/537.36",WebKit,Chrome,92.0.4515.131,Windows,10.0,5f461dd6c139dd6b46c7596cbd57cd79
215,1,"""","""","""","""","""",sampler,255,444541,0.0-6.0-249.0,"""","""","""","""","""","""","""","""","""","""","""","""","2021-08-15 21:29:11",77.54.254.9,"Mozilla/5.0 (Windows NT 10.0; Win64; x64) AppleWebKit/537.36 (KHTML, like Gecko) Chrome/92.0.4515.131 Safari/537.36",WebKit,Chrome,92.0.4515.131,Windows,10.0,5f461dd6c139dd6b46c7596cbd57cd79
215,1,"""","""","""","""","""",sampler,256,444541,0.0-6.0-250.0,"""","""","""","""","""","""","""","""","""","""","""","""","2021-08-15 21:29:11",77.54.254.9,"Mozilla/5.0 (Windows NT 10.0; Win64; x64) AppleWebKit/537.36 (KHTML, like Gecko) Chrome/92.0.4515.131 Safari/537.36",WebKit,Chrome,92.0.4515.131,Windows,10.0,5f461dd6c139dd6b46c7596cbd57cd79
215,1,"""","""","""","""","""",sampler,257,444541,0.0-6.0-251.0,"""","""","""","""","""","""","""","""","""","""","""","""","2021-08-15 21:29:11",77.54.254.9,"Mozilla/5.0 (Windows NT 10.0; Win64; x64) AppleWebKit/537.36 (KHTML, like Gecko) Chrome/92.0.4515.131 Safari/537.36",WebKit,Chrome,92.0.4515.131,Windows,10.0,5f461dd6c139dd6b46c7596cbd57cd79
215,1,"""","""","""","""","""",sampler,258,444541,0.0-6.0-252.0,"""","""","""","""","""","""","""","""","""","""","""","""","2021-08-15 21:29:11",77.54.254.9,"Mozilla/5.0 (Windows NT 10.0; Win64; x64) AppleWebKit/537.36 (KHTML, like Gecko) Chrome/92.0.4515.131 Safari/537.36",WebKit,Chrome,92.0.4515.131,Windows,10.0,5f461dd6c139dd6b46c7596cbd57cd79
215,1,"""","""","""","""","""",sampler,259,444541,0.0-6.0-253.0,"""","""","""","""","""","""","""","""","""","""","""","""","2021-08-15 21:29:11",77.54.254.9,"Mozilla/5.0 (Windows NT 10.0; Win64; x64) AppleWebKit/537.36 (KHTML, like Gecko) Chrome/92.0.4515.131 Safari/537.36",WebKit,Chrome,92.0.4515.131,Windows,10.0,5f461dd6c139dd6b46c7596cbd57cd79
215,1,"""","""","""","""","""",sampler,260,444541,0.0-6.0-254.0,"""","""","""","""","""","""","""","""","""","""","""","""","2021-08-15 21:29:11",77.54.254.9,"Mozilla/5.0 (Windows NT 10.0; Win64; x64) AppleWebKit/537.36 (KHTML, like Gecko) Chrome/92.0.4515.131 Safari/537.36",WebKit,Chrome,92.0.4515.131,Windows,10.0,5f461dd6c139dd6b46c7596cbd57cd79
215,1,"""","""","""","""","""",sampler,261,444541,0.0-6.0-255.0,"""","""","""","""","""","""","""","""","""","""","""","""","2021-08-15 21:29:11",77.54.254.9,"Mozilla/5.0 (Windows NT 10.0; Win64; x64) AppleWebKit/537.36 (KHTML, like Gecko) Chrome/92.0.4515.131 Safari/537.36",WebKit,Chrome,92.0.4515.131,Windows,10.0,5f461dd6c139dd6b46c7596cbd57cd79
215,1,"""","""","""","""","""",sampler,262,444541,0.0-6.0-256.0,"""","""","""","""","""","""","""","""","""","""","""","""","2021-08-15 21:29:11",77.54.254.9,"Mozilla/5.0 (Windows NT 10.0; Win64; x64) AppleWebKit/537.36 (KHTML, like Gecko) Chrome/92.0.4515.131 Safari/537.36",WebKit,Chrome,92.0.4515.131,Windows,10.0,5f461dd6c139dd6b46c7596cbd57cd79
215,1,"""","""","""","""","""",sampler,263,444541,0.0-6.0-257.0,"""","""","""","""","""","""","""","""","""","""","""","""","2021-08-15 21:29:11",77.54.254.9,"Mozilla/5.0 (Windows NT 10.0; Win64; x64) AppleWebKit/537.36 (KHTML, like Gecko) Chrome/92.0.4515.131 Safari/537.36",WebKit,Chrome,92.0.4515.131,Windows,10.0,5f461dd6c139dd6b46c7596cbd57cd79
215,1,"""","""","""","""","""",sampler,264,444541,0.0-6.0-258.0,"""","""","""","""","""","""","""","""","""","""","""","""","2021-08-15 21:29:11",77.54.254.9,"Mozilla/5.0 (Windows NT 10.0; Win64; x64) AppleWebKit/537.36 (KHTML, like Gecko) Chrome/92.0.4515.131 Safari/537.36",WebKit,Chrome,92.0.4515.131,Windows,10.0,5f461dd6c139dd6b46c7596cbd57cd79
215,1,"""","""","""","""","""",sampler,265,444541,0.0-6.0-259.0,"""","""","""","""","""","""","""","""","""","""","""","""","2021-08-15 21:29:11",77.54.254.9,"Mozilla/5.0 (Windows NT 10.0; Win64; x64) AppleWebKit/537.36 (KHTML, like Gecko) Chrome/92.0.4515.131 Safari/537.36",WebKit,Chrome,92.0.4515.131,Windows,10.0,5f461dd6c139dd6b46c7596cbd57cd79
215,1,"""","""","""","""","""",sampler,266,444542,0.0-6.0-260.0,"""","""","""","""","""","""","""","""","""","""","""","""","2021-08-15 21:29:11",77.54.254.9,"Mozilla/5.0 (Windows NT 10.0; Win64; x64) AppleWebKit/537.36 (KHTML, like Gecko) Chrome/92.0.4515.131 Safari/537.36",WebKit,Chrome,92.0.4515.131,Windows,10.0,5f461dd6c139dd6b46c7596cbd57cd79
215,1,"""","""","""","""","""",sampler,267,444542,0.0-6.0-261.0,"""","""","""","""","""","""","""","""","""","""","""","""","2021-08-15 21:29:11",77.54.254.9,"Mozilla/5.0 (Windows NT 10.0; Win64; x64) AppleWebKit/537.36 (KHTML, like Gecko) Chrome/92.0.4515.131 Safari/537.36",WebKit,Chrome,92.0.4515.131,Windows,10.0,5f461dd6c139dd6b46c7596cbd57cd79
215,1,"""","""","""","""","""",sampler,268,444542,0.0-6.0-262.0,"""","""","""","""","""","""","""","""","""","""","""","""","2021-08-15 21:29:11",77.54.254.9,"Mozilla/5.0 (Windows NT 10.0; Win64; x64) AppleWebKit/537.36 (KHTML, like Gecko) Chrome/92.0.4515.131 Safari/537.36",WebKit,Chrome,92.0.4515.131,Windows,10.0,5f461dd6c139dd6b46c7596cbd57cd79
215,1,"""","""","""","""","""",sampler,269,444542,0.0-6.0-263.0,"""","""","""","""","""","""","""","""","""","""","""","""","2021-08-15 21:29:11",77.54.254.9,"Mozilla/5.0 (Windows NT 10.0; Win64; x64) AppleWebKit/537.36 (KHTML, like Gecko) Chrome/92.0.4515.131 Safari/537.36",WebKit,Chrome,92.0.4515.131,Windows,10.0,5f461dd6c139dd6b46c7596cbd57cd79
215,1,"""","""","""","""","""",sampler,270,444542,0.0-6.0-264.0,"""","""","""","""","""","""","""","""","""","""","""","""","2021-08-15 21:29:11",77.54.254.9,"Mozilla/5.0 (Windows NT 10.0; Win64; x64) AppleWebKit/537.36 (KHTML, like Gecko) Chrome/92.0.4515.131 Safari/537.36",WebKit,Chrome,92.0.4515.131,Windows,10.0,5f461dd6c139dd6b46c7596cbd57cd79
215,1,"""","""","""","""","""",sampler,271,444542,0.0-6.0-265.0,"""","""","""","""","""","""","""","""","""","""","""","""","2021-08-15 21:29:11",77.54.254.9,"Mozilla/5.0 (Windows NT 10.0; Win64; x64) AppleWebKit/537.36 (KHTML, like Gecko) Chrome/92.0.4515.131 Safari/537.36",WebKit,Chrome,92.0.4515.131,Windows,10.0,5f461dd6c139dd6b46c7596cbd57cd79
215,1,"""","""","""","""","""",sampler,272,444542,0.0-6.0-266.0,"""","""","""","""","""","""","""","""","""","""","""","""","2021-08-15 21:29:11",77.54.254.9,"Mozilla/5.0 (Windows NT 10.0; Win64; x64) AppleWebKit/537.36 (KHTML, like Gecko) Chrome/92.0.4515.131 Safari/537.36",WebKit,Chrome,92.0.4515.131,Windows,10.0,5f461dd6c139dd6b46c7596cbd57cd79
215,1,"""","""","""","""","""",sampler,273,444543,0.0-6.0-267.0,"""","""","""","""","""","""","""","""","""","""","""","""","2021-08-15 21:29:11",77.54.254.9,"Mozilla/5.0 (Windows NT 10.0; Win64; x64) AppleWebKit/537.36 (KHTML, like Gecko) Chrome/92.0.4515.131 Safari/537.36",WebKit,Chrome,92.0.4515.131,Windows,10.0,5f461dd6c139dd6b46c7596cbd57cd79
215,1,"""","""","""","""","""",sampler,274,444543,0.0-6.0-268.0,"""","""","""","""","""","""","""","""","""","""","""","""","2021-08-15 21:29:11",77.54.254.9,"Mozilla/5.0 (Windows NT 10.0; Win64; x64) AppleWebKit/537.36 (KHTML, like Gecko) Chrome/92.0.4515.131 Safari/537.36",WebKit,Chrome,92.0.4515.131,Windows,10.0,5f461dd6c139dd6b46c7596cbd57cd79
215,1,"""","""","""","""","""",sampler,275,444543,0.0-6.0-269.0,"""","""","""","""","""","""","""","""","""","""","""","""","2021-08-15 21:29:11",77.54.254.9,"Mozilla/5.0 (Windows NT 10.0; Win64; x64) AppleWebKit/537.36 (KHTML, like Gecko) Chrome/92.0.4515.131 Safari/537.36",WebKit,Chrome,92.0.4515.131,Windows,10.0,5f461dd6c139dd6b46c7596cbd57cd79
215,1,"""","""","""","""","""",sampler,276,444543,0.0-6.0-270.0,"""","""","""","""","""","""","""","""","""","""","""","""","2021-08-15 21:29:11",77.54.254.9,"Mozilla/5.0 (Windows NT 10.0; Win64; x64) AppleWebKit/537.36 (KHTML, like Gecko) Chrome/92.0.4515.131 Safari/537.36",WebKit,Chrome,92.0.4515.131,Windows,10.0,5f461dd6c139dd6b46c7596cbd57cd79
215,1,"""","""","""","""","""",sampler,277,444543,0.0-6.0-271.0,"""","""","""","""","""","""","""","""","""","""","""","""","2021-08-15 21:29:11",77.54.254.9,"Mozilla/5.0 (Windows NT 10.0; Win64; x64) AppleWebKit/537.36 (KHTML, like Gecko) Chrome/92.0.4515.131 Safari/537.36",WebKit,Chrome,92.0.4515.131,Windows,10.0,5f461dd6c139dd6b46c7596cbd57cd79
215,1,"""","""","""","""","""",sampler,278,444543,0.0-6.0-272.0,"""","""","""","""","""","""","""","""","""","""","""","""","2021-08-15 21:29:11",77.54.254.9,"Mozilla/5.0 (Windows NT 10.0; Win64; x64) AppleWebKit/537.36 (KHTML, like Gecko) Chrome/92.0.4515.131 Safari/537.36",WebKit,Chrome,92.0.4515.131,Windows,10.0,5f461dd6c139dd6b46c7596cbd57cd79
215,1,"""","""","""","""","""",sampler,279,444543,0.0-6.0-273.0,"""","""","""","""","""","""","""","""","""","""","""","""","2021-08-15 21:29:11",77.54.254.9,"Mozilla/5.0 (Windows NT 10.0; Win64; x64) AppleWebKit/537.36 (KHTML, like Gecko) Chrome/92.0.4515.131 Safari/537.36",WebKit,Chrome,92.0.4515.131,Windows,10.0,5f461dd6c139dd6b46c7596cbd57cd79
215,1,"""","""","""","""","""",sampler,280,444543,0.0-6.0-274.0,"""","""","""","""","""","""","""","""","""","""","""","""","2021-08-15 21:29:11",77.54.254.9,"Mozilla/5.0 (Windows NT 10.0; Win64; x64) AppleWebKit/537.36 (KHTML, like Gecko) Chrome/92.0.4515.131 Safari/537.36",WebKit,Chrome,92.0.4515.131,Windows,10.0,5f461dd6c139dd6b46c7596cbd57cd79
215,1,"""","""","""","""","""",sampler,281,444543,0.0-6.0-275.0,"""","""","""","""","""","""","""","""","""","""","""","""","2021-08-15 21:29:11",77.54.254.9,"Mozilla/5.0 (Windows NT 10.0; Win64; x64) AppleWebKit/537.36 (KHTML, like Gecko) Chrome/92.0.4515.131 Safari/537.36",WebKit,Chrome,92.0.4515.131,Windows,10.0,5f461dd6c139dd6b46c7596cbd57cd79
