run_id,condition,success,timeout,failed_images,failed_audio,failed_video,trial_type,trial_index,time_elapsed,internal_node_id,rt,stimulus,key_press,responses,view_history,correct,image_click,points,sd,points2,total_earn,button_pressed,recorded_at,ip,user_agent,device,browser,browser_version,platform,platform_version,source_code_version
203,1,true,false,"""","""","""",preload,0,2207,0.0-0.0,"""","""","""","""","""","""","""","""","""","""","""","""","2021-08-13 21:13:55",70.93.250.3,"Mozilla/5.0 (Windows NT 10.0; Win64; x64; rv:91.0) Gecko/20100101 Firefox/91.0",,Firefox,91.0,Windows,10.0,5f461dd6c139dd6b46c7596cbd57cd79
203,1,"""","""","""","""","""",html-keyboard-response,1,9295,0.0-1.0,7065,"<font size=15>Welcome to our experiment!</font><br><br><br><i> Press <b>space bar</b> to begin.</i>",32,"""","""","""","""","""","""","""","""","""","2021-08-13 21:13:55",70.93.250.3,"Mozilla/5.0 (Windows NT 10.0; Win64; x64; rv:91.0) Gecko/20100101 Firefox/91.0",,Firefox,91.0,Windows,10.0,5f461dd6c139dd6b46c7596cbd57cd79
203,1,"""","""","""","""","""",survey-multi-choice,2,655873,0.0-2.0,646566,"""","""","{""Q0"":""Yes"",""Q1"":""Yes"",""Q2"":""Yes"",""Q3"":""Yes""}","""","""","""","""","""","""","""","""","2021-08-13 21:13:55",70.93.250.3,"Mozilla/5.0 (Windows NT 10.0; Win64; x64; rv:91.0) Gecko/20100101 Firefox/91.0",,Firefox,91.0,Windows,10.0,5f461dd6c139dd6b46c7596cbd57cd79
203,1,"""","""","""","""","""",survey-html-form,3,679619,0.0-3.0,23734,"""","""","{""gender"":""male"",""age"":""36"",""hand"":""right"",""mail"":""610eb2deab587b7f98373a13""}","""","""","""","""","""","""","""","""","2021-08-13 21:13:55",70.93.250.3,"Mozilla/5.0 (Windows NT 10.0; Win64; x64; rv:91.0) Gecko/20100101 Firefox/91.0",,Firefox,91.0,Windows,10.0,5f461dd6c139dd6b46c7596cbd57cd79
203,1,true,"""","""","""","""",fullscreen,4,1362518,0.0-4.0,"""","""","""","""","""","""","""","""","""","""","""","""","2021-08-13 21:13:55",70.93.250.3,"Mozilla/5.0 (Windows NT 10.0; Win64; x64; rv:91.0) Gecko/20100101 Firefox/91.0",,Firefox,91.0,Windows,10.0,5f461dd6c139dd6b46c7596cbd57cd79
203,1,"""","""","""","""","""",multikey-instructions,5,1456967,0.0-5.0,94439,"""","""","""","[{""page_index"":0,""viewing_time"":9696},{""page_index"":1,""viewing_time"":995},{""page_index"":2,""viewing_time"":7166},{""page_index"":3,""viewing_time"":12854},{""page_index"":4,""viewing_time"":18450},{""page_index"":5,""viewing_time"":13692},{""page_index"":6,""viewing_time"":5777},{""page_index"":7,""viewing_time"":3716},{""page_index"":8,""viewing_time"":1522},{""page_index"":9,""viewing_time"":10268},{""page_index"":10,""viewing_time"":3357},{""page_index"":11,""viewing_time"":6944}]","""","""","""","""","""","""","""","2021-08-13 21:13:55",70.93.250.3,"Mozilla/5.0 (Windows NT 10.0; Win64; x64; rv:91.0) Gecko/20100101 Firefox/91.0",,Firefox,91.0,Windows,10.0,5f461dd6c139dd6b46c7596cbd57cd79
203,1,"""","""","""","""","""",sampler,6,1482510,0.0-6.0-0.0,25132,img/Cyan.png,"""","""","""",false,-1,20.744982658795884,5,"""","""","""","2021-08-13 21:13:55",70.93.250.3,"Mozilla/5.0 (Windows NT 10.0; Win64; x64; rv:91.0) Gecko/20100101 Firefox/91.0",,Firefox,91.0,Windows,10.0,5f461dd6c139dd6b46c7596cbd57cd79
203,1,"""","""","""","""","""",sampler,7,1486232,0.0-6.0-1.0,3309,img/Cyan.png,"""","""","""",false,-1,7.592478922242369,5,"""","""","""","2021-08-13 21:13:55",70.93.250.3,"Mozilla/5.0 (Windows NT 10.0; Win64; x64; rv:91.0) Gecko/20100101 Firefox/91.0",,Firefox,91.0,Windows,10.0,5f461dd6c139dd6b46c7596cbd57cd79
203,1,"""","""","""","""","""",sampler,8,1492141,0.0-6.0-2.0,5486,img/Cyan.png,"""","""","""",false,-1,5.554931082845326,5,"""","""","""","2021-08-13 21:13:55",70.93.250.3,"Mozilla/5.0 (Windows NT 10.0; Win64; x64; rv:91.0) Gecko/20100101 Firefox/91.0",,Firefox,91.0,Windows,10.0,5f461dd6c139dd6b46c7596cbd57cd79
203,1,"""","""","""","""","""",sampler,9,1492146,0.0-6.0-3.0,"""","""","""","""","""","""","""","""","""","""","""","""","2021-08-13 21:13:55",70.93.250.3,"Mozilla/5.0 (Windows NT 10.0; Win64; x64; rv:91.0) Gecko/20100101 Firefox/91.0",,Firefox,91.0,Windows,10.0,5f461dd6c139dd6b46c7596cbd57cd79
203,1,"""","""","""","""","""",sampler,10,1492147,0.0-6.0-4.0,"""","""","""","""","""","""","""","""","""","""","""","""","2021-08-13 21:13:55",70.93.250.3,"Mozilla/5.0 (Windows NT 10.0; Win64; x64; rv:91.0) Gecko/20100101 Firefox/91.0",,Firefox,91.0,Windows,10.0,5f461dd6c139dd6b46c7596cbd57cd79
203,1,"""","""","""","""","""",sampler,11,1492148,0.0-6.0-5.0,"""","""","""","""","""","""","""","""","""","""","""","""","2021-08-13 21:13:55",70.93.250.3,"Mozilla/5.0 (Windows NT 10.0; Win64; x64; rv:91.0) Gecko/20100101 Firefox/91.0",,Firefox,91.0,Windows,10.0,5f461dd6c139dd6b46c7596cbd57cd79
203,1,"""","""","""","""","""",sampler,12,1492149,0.0-6.0-6.0,"""","""","""","""","""","""","""","""","""","""","""","""","2021-08-13 21:13:55",70.93.250.3,"Mozilla/5.0 (Windows NT 10.0; Win64; x64; rv:91.0) Gecko/20100101 Firefox/91.0",,Firefox,91.0,Windows,10.0,5f461dd6c139dd6b46c7596cbd57cd79
203,1,"""","""","""","""","""",sampler,13,1492150,0.0-6.0-7.0,"""","""","""","""","""","""","""","""","""","""","""","""","2021-08-13 21:13:55",70.93.250.3,"Mozilla/5.0 (Windows NT 10.0; Win64; x64; rv:91.0) Gecko/20100101 Firefox/91.0",,Firefox,91.0,Windows,10.0,5f461dd6c139dd6b46c7596cbd57cd79
203,1,"""","""","""","""","""",sampler,14,1492151,0.0-6.0-8.0,"""","""","""","""","""","""","""","""","""","""","""","""","2021-08-13 21:13:55",70.93.250.3,"Mozilla/5.0 (Windows NT 10.0; Win64; x64; rv:91.0) Gecko/20100101 Firefox/91.0",,Firefox,91.0,Windows,10.0,5f461dd6c139dd6b46c7596cbd57cd79
203,1,"""","""","""","""","""",sampler,15,1492151,0.0-6.0-9.0,"""","""","""","""","""","""","""","""","""","""","""","""","2021-08-13 21:13:55",70.93.250.3,"Mozilla/5.0 (Windows NT 10.0; Win64; x64; rv:91.0) Gecko/20100101 Firefox/91.0",,Firefox,91.0,Windows,10.0,5f461dd6c139dd6b46c7596cbd57cd79
203,1,"""","""","""","""","""",sampler,16,1492153,0.0-6.0-10.0,"""","""","""","""","""","""","""","""","""","""","""","""","2021-08-13 21:13:55",70.93.250.3,"Mozilla/5.0 (Windows NT 10.0; Win64; x64; rv:91.0) Gecko/20100101 Firefox/91.0",,Firefox,91.0,Windows,10.0,5f461dd6c139dd6b46c7596cbd57cd79
203,1,"""","""","""","""","""",sampler,17,1492153,0.0-6.0-11.0,"""","""","""","""","""","""","""","""","""","""","""","""","2021-08-13 21:13:55",70.93.250.3,"Mozilla/5.0 (Windows NT 10.0; Win64; x64; rv:91.0) Gecko/20100101 Firefox/91.0",,Firefox,91.0,Windows,10.0,5f461dd6c139dd6b46c7596cbd57cd79
203,1,"""","""","""","""","""",sampler,18,1492154,0.0-6.0-12.0,"""","""","""","""","""","""","""","""","""","""","""","""","2021-08-13 21:13:55",70.93.250.3,"Mozilla/5.0 (Windows NT 10.0; Win64; x64; rv:91.0) Gecko/20100101 Firefox/91.0",,Firefox,91.0,Windows,10.0,5f461dd6c139dd6b46c7596cbd57cd79
203,1,"""","""","""","""","""",sampler,19,1492154,0.0-6.0-13.0,"""","""","""","""","""","""","""","""","""","""","""","""","2021-08-13 21:13:55",70.93.250.3,"Mozilla/5.0 (Windows NT 10.0; Win64; x64; rv:91.0) Gecko/20100101 Firefox/91.0",,Firefox,91.0,Windows,10.0,5f461dd6c139dd6b46c7596cbd57cd79
203,1,"""","""","""","""","""",sampler,20,1492154,0.0-6.0-14.0,"""","""","""","""","""","""","""","""","""","""","""","""","2021-08-13 21:13:55",70.93.250.3,"Mozilla/5.0 (Windows NT 10.0; Win64; x64; rv:91.0) Gecko/20100101 Firefox/91.0",,Firefox,91.0,Windows,10.0,5f461dd6c139dd6b46c7596cbd57cd79
203,1,"""","""","""","""","""",sampler,21,1492155,0.0-6.0-15.0,"""","""","""","""","""","""","""","""","""","""","""","""","2021-08-13 21:13:55",70.93.250.3,"Mozilla/5.0 (Windows NT 10.0; Win64; x64; rv:91.0) Gecko/20100101 Firefox/91.0",,Firefox,91.0,Windows,10.0,5f461dd6c139dd6b46c7596cbd57cd79
203,1,"""","""","""","""","""",sampler,22,1492156,0.0-6.0-16.0,"""","""","""","""","""","""","""","""","""","""","""","""","2021-08-13 21:13:55",70.93.250.3,"Mozilla/5.0 (Windows NT 10.0; Win64; x64; rv:91.0) Gecko/20100101 Firefox/91.0",,Firefox,91.0,Windows,10.0,5f461dd6c139dd6b46c7596cbd57cd79
203,1,"""","""","""","""","""",sampler,23,1492156,0.0-6.0-17.0,"""","""","""","""","""","""","""","""","""","""","""","""","2021-08-13 21:13:55",70.93.250.3,"Mozilla/5.0 (Windows NT 10.0; Win64; x64; rv:91.0) Gecko/20100101 Firefox/91.0",,Firefox,91.0,Windows,10.0,5f461dd6c139dd6b46c7596cbd57cd79
203,1,"""","""","""","""","""",sampler,24,1492157,0.0-6.0-18.0,"""","""","""","""","""","""","""","""","""","""","""","""","2021-08-13 21:13:55",70.93.250.3,"Mozilla/5.0 (Windows NT 10.0; Win64; x64; rv:91.0) Gecko/20100101 Firefox/91.0",,Firefox,91.0,Windows,10.0,5f461dd6c139dd6b46c7596cbd57cd79
203,1,"""","""","""","""","""",sampler,25,1492157,0.0-6.0-19.0,"""","""","""","""","""","""","""","""","""","""","""","""","2021-08-13 21:13:55",70.93.250.3,"Mozilla/5.0 (Windows NT 10.0; Win64; x64; rv:91.0) Gecko/20100101 Firefox/91.0",,Firefox,91.0,Windows,10.0,5f461dd6c139dd6b46c7596cbd57cd79
203,1,"""","""","""","""","""",sampler,26,1492157,0.0-6.0-20.0,"""","""","""","""","""","""","""","""","""","""","""","""","2021-08-13 21:13:55",70.93.250.3,"Mozilla/5.0 (Windows NT 10.0; Win64; x64; rv:91.0) Gecko/20100101 Firefox/91.0",,Firefox,91.0,Windows,10.0,5f461dd6c139dd6b46c7596cbd57cd79
203,1,"""","""","""","""","""",sampler,27,1492158,0.0-6.0-21.0,"""","""","""","""","""","""","""","""","""","""","""","""","2021-08-13 21:13:55",70.93.250.3,"Mozilla/5.0 (Windows NT 10.0; Win64; x64; rv:91.0) Gecko/20100101 Firefox/91.0",,Firefox,91.0,Windows,10.0,5f461dd6c139dd6b46c7596cbd57cd79
203,1,"""","""","""","""","""",sampler,28,1492158,0.0-6.0-22.0,"""","""","""","""","""","""","""","""","""","""","""","""","2021-08-13 21:13:55",70.93.250.3,"Mozilla/5.0 (Windows NT 10.0; Win64; x64; rv:91.0) Gecko/20100101 Firefox/91.0",,Firefox,91.0,Windows,10.0,5f461dd6c139dd6b46c7596cbd57cd79
203,1,"""","""","""","""","""",sampler,29,1492159,0.0-6.0-23.0,"""","""","""","""","""","""","""","""","""","""","""","""","2021-08-13 21:13:55",70.93.250.3,"Mozilla/5.0 (Windows NT 10.0; Win64; x64; rv:91.0) Gecko/20100101 Firefox/91.0",,Firefox,91.0,Windows,10.0,5f461dd6c139dd6b46c7596cbd57cd79
203,1,"""","""","""","""","""",sampler,30,1492159,0.0-6.0-24.0,"""","""","""","""","""","""","""","""","""","""","""","""","2021-08-13 21:13:55",70.93.250.3,"Mozilla/5.0 (Windows NT 10.0; Win64; x64; rv:91.0) Gecko/20100101 Firefox/91.0",,Firefox,91.0,Windows,10.0,5f461dd6c139dd6b46c7596cbd57cd79
203,1,"""","""","""","""","""",sampler,31,1492160,0.0-6.0-25.0,"""","""","""","""","""","""","""","""","""","""","""","""","2021-08-13 21:13:55",70.93.250.3,"Mozilla/5.0 (Windows NT 10.0; Win64; x64; rv:91.0) Gecko/20100101 Firefox/91.0",,Firefox,91.0,Windows,10.0,5f461dd6c139dd6b46c7596cbd57cd79
203,1,"""","""","""","""","""",sampler,32,1492160,0.0-6.0-26.0,"""","""","""","""","""","""","""","""","""","""","""","""","2021-08-13 21:13:55",70.93.250.3,"Mozilla/5.0 (Windows NT 10.0; Win64; x64; rv:91.0) Gecko/20100101 Firefox/91.0",,Firefox,91.0,Windows,10.0,5f461dd6c139dd6b46c7596cbd57cd79
203,1,"""","""","""","""","""",sampler,33,1492161,0.0-6.0-27.0,"""","""","""","""","""","""","""","""","""","""","""","""","2021-08-13 21:13:55",70.93.250.3,"Mozilla/5.0 (Windows NT 10.0; Win64; x64; rv:91.0) Gecko/20100101 Firefox/91.0",,Firefox,91.0,Windows,10.0,5f461dd6c139dd6b46c7596cbd57cd79
203,1,"""","""","""","""","""",sampler,34,1492161,0.0-6.0-28.0,"""","""","""","""","""","""","""","""","""","""","""","""","2021-08-13 21:13:55",70.93.250.3,"Mozilla/5.0 (Windows NT 10.0; Win64; x64; rv:91.0) Gecko/20100101 Firefox/91.0",,Firefox,91.0,Windows,10.0,5f461dd6c139dd6b46c7596cbd57cd79
203,1,"""","""","""","""","""",sampler,35,1492161,0.0-6.0-29.0,"""","""","""","""","""","""","""","""","""","""","""","""","2021-08-13 21:13:55",70.93.250.3,"Mozilla/5.0 (Windows NT 10.0; Win64; x64; rv:91.0) Gecko/20100101 Firefox/91.0",,Firefox,91.0,Windows,10.0,5f461dd6c139dd6b46c7596cbd57cd79
203,1,"""","""","""","""","""",sampler,36,1492161,0.0-6.0-30.0,"""","""","""","""","""","""","""","""","""","""","""","""","2021-08-13 21:13:55",70.93.250.3,"Mozilla/5.0 (Windows NT 10.0; Win64; x64; rv:91.0) Gecko/20100101 Firefox/91.0",,Firefox,91.0,Windows,10.0,5f461dd6c139dd6b46c7596cbd57cd79
203,1,"""","""","""","""","""",sampler,37,1492162,0.0-6.0-31.0,"""","""","""","""","""","""","""","""","""","""","""","""","2021-08-13 21:13:55",70.93.250.3,"Mozilla/5.0 (Windows NT 10.0; Win64; x64; rv:91.0) Gecko/20100101 Firefox/91.0",,Firefox,91.0,Windows,10.0,5f461dd6c139dd6b46c7596cbd57cd79
203,1,"""","""","""","""","""",sampler,38,1492163,0.0-6.0-32.0,"""","""","""","""","""","""","""","""","""","""","""","""","2021-08-13 21:13:55",70.93.250.3,"Mozilla/5.0 (Windows NT 10.0; Win64; x64; rv:91.0) Gecko/20100101 Firefox/91.0",,Firefox,91.0,Windows,10.0,5f461dd6c139dd6b46c7596cbd57cd79
203,1,"""","""","""","""","""",sampler,39,1492163,0.0-6.0-33.0,"""","""","""","""","""","""","""","""","""","""","""","""","2021-08-13 21:13:55",70.93.250.3,"Mozilla/5.0 (Windows NT 10.0; Win64; x64; rv:91.0) Gecko/20100101 Firefox/91.0",,Firefox,91.0,Windows,10.0,5f461dd6c139dd6b46c7596cbd57cd79
203,1,"""","""","""","""","""",sampler,40,1492164,0.0-6.0-34.0,"""","""","""","""","""","""","""","""","""","""","""","""","2021-08-13 21:13:55",70.93.250.3,"Mozilla/5.0 (Windows NT 10.0; Win64; x64; rv:91.0) Gecko/20100101 Firefox/91.0",,Firefox,91.0,Windows,10.0,5f461dd6c139dd6b46c7596cbd57cd79
203,1,"""","""","""","""","""",sampler,41,1492164,0.0-6.0-35.0,"""","""","""","""","""","""","""","""","""","""","""","""","2021-08-13 21:13:55",70.93.250.3,"Mozilla/5.0 (Windows NT 10.0; Win64; x64; rv:91.0) Gecko/20100101 Firefox/91.0",,Firefox,91.0,Windows,10.0,5f461dd6c139dd6b46c7596cbd57cd79
203,1,"""","""","""","""","""",sampler,42,1492164,0.0-6.0-36.0,"""","""","""","""","""","""","""","""","""","""","""","""","2021-08-13 21:13:55",70.93.250.3,"Mozilla/5.0 (Windows NT 10.0; Win64; x64; rv:91.0) Gecko/20100101 Firefox/91.0",,Firefox,91.0,Windows,10.0,5f461dd6c139dd6b46c7596cbd57cd79
203,1,"""","""","""","""","""",sampler,43,1492165,0.0-6.0-37.0,"""","""","""","""","""","""","""","""","""","""","""","""","2021-08-13 21:13:55",70.93.250.3,"Mozilla/5.0 (Windows NT 10.0; Win64; x64; rv:91.0) Gecko/20100101 Firefox/91.0",,Firefox,91.0,Windows,10.0,5f461dd6c139dd6b46c7596cbd57cd79
203,1,"""","""","""","""","""",sampler,44,1492165,0.0-6.0-38.0,"""","""","""","""","""","""","""","""","""","""","""","""","2021-08-13 21:13:55",70.93.250.3,"Mozilla/5.0 (Windows NT 10.0; Win64; x64; rv:91.0) Gecko/20100101 Firefox/91.0",,Firefox,91.0,Windows,10.0,5f461dd6c139dd6b46c7596cbd57cd79
203,1,"""","""","""","""","""",sampler,45,1492165,0.0-6.0-39.0,"""","""","""","""","""","""","""","""","""","""","""","""","2021-08-13 21:13:55",70.93.250.3,"Mozilla/5.0 (Windows NT 10.0; Win64; x64; rv:91.0) Gecko/20100101 Firefox/91.0",,Firefox,91.0,Windows,10.0,5f461dd6c139dd6b46c7596cbd57cd79
203,1,"""","""","""","""","""",sampler,46,1492166,0.0-6.0-40.0,"""","""","""","""","""","""","""","""","""","""","""","""","2021-08-13 21:13:55",70.93.250.3,"Mozilla/5.0 (Windows NT 10.0; Win64; x64; rv:91.0) Gecko/20100101 Firefox/91.0",,Firefox,91.0,Windows,10.0,5f461dd6c139dd6b46c7596cbd57cd79
203,1,"""","""","""","""","""",sampler,47,1492166,0.0-6.0-41.0,"""","""","""","""","""","""","""","""","""","""","""","""","2021-08-13 21:13:55",70.93.250.3,"Mozilla/5.0 (Windows NT 10.0; Win64; x64; rv:91.0) Gecko/20100101 Firefox/91.0",,Firefox,91.0,Windows,10.0,5f461dd6c139dd6b46c7596cbd57cd79
203,1,"""","""","""","""","""",sampler,48,1492166,0.0-6.0-42.0,"""","""","""","""","""","""","""","""","""","""","""","""","2021-08-13 21:13:55",70.93.250.3,"Mozilla/5.0 (Windows NT 10.0; Win64; x64; rv:91.0) Gecko/20100101 Firefox/91.0",,Firefox,91.0,Windows,10.0,5f461dd6c139dd6b46c7596cbd57cd79
203,1,"""","""","""","""","""",sampler,49,1492167,0.0-6.0-43.0,"""","""","""","""","""","""","""","""","""","""","""","""","2021-08-13 21:13:55",70.93.250.3,"Mozilla/5.0 (Windows NT 10.0; Win64; x64; rv:91.0) Gecko/20100101 Firefox/91.0",,Firefox,91.0,Windows,10.0,5f461dd6c139dd6b46c7596cbd57cd79
203,1,"""","""","""","""","""",sampler,50,1492167,0.0-6.0-44.0,"""","""","""","""","""","""","""","""","""","""","""","""","2021-08-13 21:13:55",70.93.250.3,"Mozilla/5.0 (Windows NT 10.0; Win64; x64; rv:91.0) Gecko/20100101 Firefox/91.0",,Firefox,91.0,Windows,10.0,5f461dd6c139dd6b46c7596cbd57cd79
203,1,"""","""","""","""","""",sampler,51,1492168,0.0-6.0-45.0,"""","""","""","""","""","""","""","""","""","""","""","""","2021-08-13 21:13:55",70.93.250.3,"Mozilla/5.0 (Windows NT 10.0; Win64; x64; rv:91.0) Gecko/20100101 Firefox/91.0",,Firefox,91.0,Windows,10.0,5f461dd6c139dd6b46c7596cbd57cd79
203,1,"""","""","""","""","""",sampler,52,1492168,0.0-6.0-46.0,"""","""","""","""","""","""","""","""","""","""","""","""","2021-08-13 21:13:55",70.93.250.3,"Mozilla/5.0 (Windows NT 10.0; Win64; x64; rv:91.0) Gecko/20100101 Firefox/91.0",,Firefox,91.0,Windows,10.0,5f461dd6c139dd6b46c7596cbd57cd79
203,1,"""","""","""","""","""",sampler,53,1492168,0.0-6.0-47.0,"""","""","""","""","""","""","""","""","""","""","""","""","2021-08-13 21:13:55",70.93.250.3,"Mozilla/5.0 (Windows NT 10.0; Win64; x64; rv:91.0) Gecko/20100101 Firefox/91.0",,Firefox,91.0,Windows,10.0,5f461dd6c139dd6b46c7596cbd57cd79
203,1,"""","""","""","""","""",sampler,54,1492169,0.0-6.0-48.0,"""","""","""","""","""","""","""","""","""","""","""","""","2021-08-13 21:13:55",70.93.250.3,"Mozilla/5.0 (Windows NT 10.0; Win64; x64; rv:91.0) Gecko/20100101 Firefox/91.0",,Firefox,91.0,Windows,10.0,5f461dd6c139dd6b46c7596cbd57cd79
203,1,"""","""","""","""","""",sampler,55,1492169,0.0-6.0-49.0,"""","""","""","""","""","""","""","""","""","""","""","""","2021-08-13 21:13:55",70.93.250.3,"Mozilla/5.0 (Windows NT 10.0; Win64; x64; rv:91.0) Gecko/20100101 Firefox/91.0",,Firefox,91.0,Windows,10.0,5f461dd6c139dd6b46c7596cbd57cd79
203,1,"""","""","""","""","""",sampler,56,1492170,0.0-6.0-50.0,"""","""","""","""","""","""","""","""","""","""","""","""","2021-08-13 21:13:55",70.93.250.3,"Mozilla/5.0 (Windows NT 10.0; Win64; x64; rv:91.0) Gecko/20100101 Firefox/91.0",,Firefox,91.0,Windows,10.0,5f461dd6c139dd6b46c7596cbd57cd79
203,1,"""","""","""","""","""",sampler,57,1492170,0.0-6.0-51.0,"""","""","""","""","""","""","""","""","""","""","""","""","2021-08-13 21:13:55",70.93.250.3,"Mozilla/5.0 (Windows NT 10.0; Win64; x64; rv:91.0) Gecko/20100101 Firefox/91.0",,Firefox,91.0,Windows,10.0,5f461dd6c139dd6b46c7596cbd57cd79
203,1,"""","""","""","""","""",sampler,58,1492171,0.0-6.0-52.0,"""","""","""","""","""","""","""","""","""","""","""","""","2021-08-13 21:13:55",70.93.250.3,"Mozilla/5.0 (Windows NT 10.0; Win64; x64; rv:91.0) Gecko/20100101 Firefox/91.0",,Firefox,91.0,Windows,10.0,5f461dd6c139dd6b46c7596cbd57cd79
203,1,"""","""","""","""","""",sampler,59,1492171,0.0-6.0-53.0,"""","""","""","""","""","""","""","""","""","""","""","""","2021-08-13 21:13:55",70.93.250.3,"Mozilla/5.0 (Windows NT 10.0; Win64; x64; rv:91.0) Gecko/20100101 Firefox/91.0",,Firefox,91.0,Windows,10.0,5f461dd6c139dd6b46c7596cbd57cd79
203,1,"""","""","""","""","""",sampler,60,1492171,0.0-6.0-54.0,"""","""","""","""","""","""","""","""","""","""","""","""","2021-08-13 21:13:55",70.93.250.3,"Mozilla/5.0 (Windows NT 10.0; Win64; x64; rv:91.0) Gecko/20100101 Firefox/91.0",,Firefox,91.0,Windows,10.0,5f461dd6c139dd6b46c7596cbd57cd79
203,1,"""","""","""","""","""",sampler,61,1492172,0.0-6.0-55.0,"""","""","""","""","""","""","""","""","""","""","""","""","2021-08-13 21:13:55",70.93.250.3,"Mozilla/5.0 (Windows NT 10.0; Win64; x64; rv:91.0) Gecko/20100101 Firefox/91.0",,Firefox,91.0,Windows,10.0,5f461dd6c139dd6b46c7596cbd57cd79
203,1,"""","""","""","""","""",sampler,62,1492172,0.0-6.0-56.0,"""","""","""","""","""","""","""","""","""","""","""","""","2021-08-13 21:13:55",70.93.250.3,"Mozilla/5.0 (Windows NT 10.0; Win64; x64; rv:91.0) Gecko/20100101 Firefox/91.0",,Firefox,91.0,Windows,10.0,5f461dd6c139dd6b46c7596cbd57cd79
203,1,"""","""","""","""","""",sampler,63,1492173,0.0-6.0-57.0,"""","""","""","""","""","""","""","""","""","""","""","""","2021-08-13 21:13:55",70.93.250.3,"Mozilla/5.0 (Windows NT 10.0; Win64; x64; rv:91.0) Gecko/20100101 Firefox/91.0",,Firefox,91.0,Windows,10.0,5f461dd6c139dd6b46c7596cbd57cd79
203,1,"""","""","""","""","""",sampler,64,1492173,0.0-6.0-58.0,"""","""","""","""","""","""","""","""","""","""","""","""","2021-08-13 21:13:55",70.93.250.3,"Mozilla/5.0 (Windows NT 10.0; Win64; x64; rv:91.0) Gecko/20100101 Firefox/91.0",,Firefox,91.0,Windows,10.0,5f461dd6c139dd6b46c7596cbd57cd79
203,1,"""","""","""","""","""",sampler,65,1492174,0.0-6.0-59.0,"""","""","""","""","""","""","""","""","""","""","""","""","2021-08-13 21:13:55",70.93.250.3,"Mozilla/5.0 (Windows NT 10.0; Win64; x64; rv:91.0) Gecko/20100101 Firefox/91.0",,Firefox,91.0,Windows,10.0,5f461dd6c139dd6b46c7596cbd57cd79
203,1,"""","""","""","""","""",sampler,66,1492174,0.0-6.0-60.0,"""","""","""","""","""","""","""","""","""","""","""","""","2021-08-13 21:13:55",70.93.250.3,"Mozilla/5.0 (Windows NT 10.0; Win64; x64; rv:91.0) Gecko/20100101 Firefox/91.0",,Firefox,91.0,Windows,10.0,5f461dd6c139dd6b46c7596cbd57cd79
203,1,"""","""","""","""","""",sampler,67,1492175,0.0-6.0-61.0,"""","""","""","""","""","""","""","""","""","""","""","""","2021-08-13 21:13:55",70.93.250.3,"Mozilla/5.0 (Windows NT 10.0; Win64; x64; rv:91.0) Gecko/20100101 Firefox/91.0",,Firefox,91.0,Windows,10.0,5f461dd6c139dd6b46c7596cbd57cd79
203,1,"""","""","""","""","""",sampler,68,1492175,0.0-6.0-62.0,"""","""","""","""","""","""","""","""","""","""","""","""","2021-08-13 21:13:55",70.93.250.3,"Mozilla/5.0 (Windows NT 10.0; Win64; x64; rv:91.0) Gecko/20100101 Firefox/91.0",,Firefox,91.0,Windows,10.0,5f461dd6c139dd6b46c7596cbd57cd79
203,1,"""","""","""","""","""",sampler,69,1492175,0.0-6.0-63.0,"""","""","""","""","""","""","""","""","""","""","""","""","2021-08-13 21:13:55",70.93.250.3,"Mozilla/5.0 (Windows NT 10.0; Win64; x64; rv:91.0) Gecko/20100101 Firefox/91.0",,Firefox,91.0,Windows,10.0,5f461dd6c139dd6b46c7596cbd57cd79
203,1,"""","""","""","""","""",sampler,70,1492176,0.0-6.0-64.0,"""","""","""","""","""","""","""","""","""","""","""","""","2021-08-13 21:13:55",70.93.250.3,"Mozilla/5.0 (Windows NT 10.0; Win64; x64; rv:91.0) Gecko/20100101 Firefox/91.0",,Firefox,91.0,Windows,10.0,5f461dd6c139dd6b46c7596cbd57cd79
203,1,"""","""","""","""","""",sampler,71,1492177,0.0-6.0-65.0,"""","""","""","""","""","""","""","""","""","""","""","""","2021-08-13 21:13:55",70.93.250.3,"Mozilla/5.0 (Windows NT 10.0; Win64; x64; rv:91.0) Gecko/20100101 Firefox/91.0",,Firefox,91.0,Windows,10.0,5f461dd6c139dd6b46c7596cbd57cd79
203,1,"""","""","""","""","""",sampler,72,1492177,0.0-6.0-66.0,"""","""","""","""","""","""","""","""","""","""","""","""","2021-08-13 21:13:55",70.93.250.3,"Mozilla/5.0 (Windows NT 10.0; Win64; x64; rv:91.0) Gecko/20100101 Firefox/91.0",,Firefox,91.0,Windows,10.0,5f461dd6c139dd6b46c7596cbd57cd79
203,1,"""","""","""","""","""",sampler,73,1492179,0.0-6.0-67.0,"""","""","""","""","""","""","""","""","""","""","""","""","2021-08-13 21:13:55",70.93.250.3,"Mozilla/5.0 (Windows NT 10.0; Win64; x64; rv:91.0) Gecko/20100101 Firefox/91.0",,Firefox,91.0,Windows,10.0,5f461dd6c139dd6b46c7596cbd57cd79
203,1,"""","""","""","""","""",sampler,74,1492179,0.0-6.0-68.0,"""","""","""","""","""","""","""","""","""","""","""","""","2021-08-13 21:13:55",70.93.250.3,"Mozilla/5.0 (Windows NT 10.0; Win64; x64; rv:91.0) Gecko/20100101 Firefox/91.0",,Firefox,91.0,Windows,10.0,5f461dd6c139dd6b46c7596cbd57cd79
203,1,"""","""","""","""","""",sampler,75,1492180,0.0-6.0-69.0,"""","""","""","""","""","""","""","""","""","""","""","""","2021-08-13 21:13:55",70.93.250.3,"Mozilla/5.0 (Windows NT 10.0; Win64; x64; rv:91.0) Gecko/20100101 Firefox/91.0",,Firefox,91.0,Windows,10.0,5f461dd6c139dd6b46c7596cbd57cd79
203,1,"""","""","""","""","""",sampler,76,1492180,0.0-6.0-70.0,"""","""","""","""","""","""","""","""","""","""","""","""","2021-08-13 21:13:55",70.93.250.3,"Mozilla/5.0 (Windows NT 10.0; Win64; x64; rv:91.0) Gecko/20100101 Firefox/91.0",,Firefox,91.0,Windows,10.0,5f461dd6c139dd6b46c7596cbd57cd79
203,1,"""","""","""","""","""",sampler,77,1492180,0.0-6.0-71.0,"""","""","""","""","""","""","""","""","""","""","""","""","2021-08-13 21:13:55",70.93.250.3,"Mozilla/5.0 (Windows NT 10.0; Win64; x64; rv:91.0) Gecko/20100101 Firefox/91.0",,Firefox,91.0,Windows,10.0,5f461dd6c139dd6b46c7596cbd57cd79
203,1,"""","""","""","""","""",sampler,78,1492180,0.0-6.0-72.0,"""","""","""","""","""","""","""","""","""","""","""","""","2021-08-13 21:13:55",70.93.250.3,"Mozilla/5.0 (Windows NT 10.0; Win64; x64; rv:91.0) Gecko/20100101 Firefox/91.0",,Firefox,91.0,Windows,10.0,5f461dd6c139dd6b46c7596cbd57cd79
203,1,"""","""","""","""","""",sampler,79,1492180,0.0-6.0-73.0,"""","""","""","""","""","""","""","""","""","""","""","""","2021-08-13 21:13:55",70.93.250.3,"Mozilla/5.0 (Windows NT 10.0; Win64; x64; rv:91.0) Gecko/20100101 Firefox/91.0",,Firefox,91.0,Windows,10.0,5f461dd6c139dd6b46c7596cbd57cd79
203,1,"""","""","""","""","""",sampler,80,1492181,0.0-6.0-74.0,"""","""","""","""","""","""","""","""","""","""","""","""","2021-08-13 21:13:55",70.93.250.3,"Mozilla/5.0 (Windows NT 10.0; Win64; x64; rv:91.0) Gecko/20100101 Firefox/91.0",,Firefox,91.0,Windows,10.0,5f461dd6c139dd6b46c7596cbd57cd79
203,1,"""","""","""","""","""",sampler,81,1492181,0.0-6.0-75.0,"""","""","""","""","""","""","""","""","""","""","""","""","2021-08-13 21:13:55",70.93.250.3,"Mozilla/5.0 (Windows NT 10.0; Win64; x64; rv:91.0) Gecko/20100101 Firefox/91.0",,Firefox,91.0,Windows,10.0,5f461dd6c139dd6b46c7596cbd57cd79
203,1,"""","""","""","""","""",sampler,82,1492181,0.0-6.0-76.0,"""","""","""","""","""","""","""","""","""","""","""","""","2021-08-13 21:13:55",70.93.250.3,"Mozilla/5.0 (Windows NT 10.0; Win64; x64; rv:91.0) Gecko/20100101 Firefox/91.0",,Firefox,91.0,Windows,10.0,5f461dd6c139dd6b46c7596cbd57cd79
203,1,"""","""","""","""","""",sampler,83,1492181,0.0-6.0-77.0,"""","""","""","""","""","""","""","""","""","""","""","""","2021-08-13 21:13:55",70.93.250.3,"Mozilla/5.0 (Windows NT 10.0; Win64; x64; rv:91.0) Gecko/20100101 Firefox/91.0",,Firefox,91.0,Windows,10.0,5f461dd6c139dd6b46c7596cbd57cd79
203,1,"""","""","""","""","""",sampler,84,1492182,0.0-6.0-78.0,"""","""","""","""","""","""","""","""","""","""","""","""","2021-08-13 21:13:55",70.93.250.3,"Mozilla/5.0 (Windows NT 10.0; Win64; x64; rv:91.0) Gecko/20100101 Firefox/91.0",,Firefox,91.0,Windows,10.0,5f461dd6c139dd6b46c7596cbd57cd79
203,1,"""","""","""","""","""",sampler,85,1492182,0.0-6.0-79.0,"""","""","""","""","""","""","""","""","""","""","""","""","2021-08-13 21:13:55",70.93.250.3,"Mozilla/5.0 (Windows NT 10.0; Win64; x64; rv:91.0) Gecko/20100101 Firefox/91.0",,Firefox,91.0,Windows,10.0,5f461dd6c139dd6b46c7596cbd57cd79
203,1,"""","""","""","""","""",sampler,86,1492182,0.0-6.0-80.0,"""","""","""","""","""","""","""","""","""","""","""","""","2021-08-13 21:13:55",70.93.250.3,"Mozilla/5.0 (Windows NT 10.0; Win64; x64; rv:91.0) Gecko/20100101 Firefox/91.0",,Firefox,91.0,Windows,10.0,5f461dd6c139dd6b46c7596cbd57cd79
203,1,"""","""","""","""","""",sampler,87,1492182,0.0-6.0-81.0,"""","""","""","""","""","""","""","""","""","""","""","""","2021-08-13 21:13:55",70.93.250.3,"Mozilla/5.0 (Windows NT 10.0; Win64; x64; rv:91.0) Gecko/20100101 Firefox/91.0",,Firefox,91.0,Windows,10.0,5f461dd6c139dd6b46c7596cbd57cd79
203,1,"""","""","""","""","""",sampler,88,1492182,0.0-6.0-82.0,"""","""","""","""","""","""","""","""","""","""","""","""","2021-08-13 21:13:55",70.93.250.3,"Mozilla/5.0 (Windows NT 10.0; Win64; x64; rv:91.0) Gecko/20100101 Firefox/91.0",,Firefox,91.0,Windows,10.0,5f461dd6c139dd6b46c7596cbd57cd79
203,1,"""","""","""","""","""",sampler,89,1492182,0.0-6.0-83.0,"""","""","""","""","""","""","""","""","""","""","""","""","2021-08-13 21:13:55",70.93.250.3,"Mozilla/5.0 (Windows NT 10.0; Win64; x64; rv:91.0) Gecko/20100101 Firefox/91.0",,Firefox,91.0,Windows,10.0,5f461dd6c139dd6b46c7596cbd57cd79
203,1,"""","""","""","""","""",sampler,90,1492182,0.0-6.0-84.0,"""","""","""","""","""","""","""","""","""","""","""","""","2021-08-13 21:13:55",70.93.250.3,"Mozilla/5.0 (Windows NT 10.0; Win64; x64; rv:91.0) Gecko/20100101 Firefox/91.0",,Firefox,91.0,Windows,10.0,5f461dd6c139dd6b46c7596cbd57cd79
203,1,"""","""","""","""","""",sampler,91,1492183,0.0-6.0-85.0,"""","""","""","""","""","""","""","""","""","""","""","""","2021-08-13 21:13:55",70.93.250.3,"Mozilla/5.0 (Windows NT 10.0; Win64; x64; rv:91.0) Gecko/20100101 Firefox/91.0",,Firefox,91.0,Windows,10.0,5f461dd6c139dd6b46c7596cbd57cd79
203,1,"""","""","""","""","""",sampler,92,1492183,0.0-6.0-86.0,"""","""","""","""","""","""","""","""","""","""","""","""","2021-08-13 21:13:55",70.93.250.3,"Mozilla/5.0 (Windows NT 10.0; Win64; x64; rv:91.0) Gecko/20100101 Firefox/91.0",,Firefox,91.0,Windows,10.0,5f461dd6c139dd6b46c7596cbd57cd79
203,1,"""","""","""","""","""",sampler,93,1492183,0.0-6.0-87.0,"""","""","""","""","""","""","""","""","""","""","""","""","2021-08-13 21:13:55",70.93.250.3,"Mozilla/5.0 (Windows NT 10.0; Win64; x64; rv:91.0) Gecko/20100101 Firefox/91.0",,Firefox,91.0,Windows,10.0,5f461dd6c139dd6b46c7596cbd57cd79
203,1,"""","""","""","""","""",sampler,94,1492183,0.0-6.0-88.0,"""","""","""","""","""","""","""","""","""","""","""","""","2021-08-13 21:13:55",70.93.250.3,"Mozilla/5.0 (Windows NT 10.0; Win64; x64; rv:91.0) Gecko/20100101 Firefox/91.0",,Firefox,91.0,Windows,10.0,5f461dd6c139dd6b46c7596cbd57cd79
203,1,"""","""","""","""","""",sampler,95,1492183,0.0-6.0-89.0,"""","""","""","""","""","""","""","""","""","""","""","""","2021-08-13 21:13:55",70.93.250.3,"Mozilla/5.0 (Windows NT 10.0; Win64; x64; rv:91.0) Gecko/20100101 Firefox/91.0",,Firefox,91.0,Windows,10.0,5f461dd6c139dd6b46c7596cbd57cd79
203,1,"""","""","""","""","""",sampler,96,1492184,0.0-6.0-90.0,"""","""","""","""","""","""","""","""","""","""","""","""","2021-08-13 21:13:55",70.93.250.3,"Mozilla/5.0 (Windows NT 10.0; Win64; x64; rv:91.0) Gecko/20100101 Firefox/91.0",,Firefox,91.0,Windows,10.0,5f461dd6c139dd6b46c7596cbd57cd79
203,1,"""","""","""","""","""",sampler,97,1492184,0.0-6.0-91.0,"""","""","""","""","""","""","""","""","""","""","""","""","2021-08-13 21:13:55",70.93.250.3,"Mozilla/5.0 (Windows NT 10.0; Win64; x64; rv:91.0) Gecko/20100101 Firefox/91.0",,Firefox,91.0,Windows,10.0,5f461dd6c139dd6b46c7596cbd57cd79
203,1,"""","""","""","""","""",sampler,98,1492184,0.0-6.0-92.0,"""","""","""","""","""","""","""","""","""","""","""","""","2021-08-13 21:13:55",70.93.250.3,"Mozilla/5.0 (Windows NT 10.0; Win64; x64; rv:91.0) Gecko/20100101 Firefox/91.0",,Firefox,91.0,Windows,10.0,5f461dd6c139dd6b46c7596cbd57cd79
203,1,"""","""","""","""","""",sampler,99,1492184,0.0-6.0-93.0,"""","""","""","""","""","""","""","""","""","""","""","""","2021-08-13 21:13:55",70.93.250.3,"Mozilla/5.0 (Windows NT 10.0; Win64; x64; rv:91.0) Gecko/20100101 Firefox/91.0",,Firefox,91.0,Windows,10.0,5f461dd6c139dd6b46c7596cbd57cd79
203,1,"""","""","""","""","""",sampler,100,1492184,0.0-6.0-94.0,"""","""","""","""","""","""","""","""","""","""","""","""","2021-08-13 21:13:55",70.93.250.3,"Mozilla/5.0 (Windows NT 10.0; Win64; x64; rv:91.0) Gecko/20100101 Firefox/91.0",,Firefox,91.0,Windows,10.0,5f461dd6c139dd6b46c7596cbd57cd79
203,1,"""","""","""","""","""",sampler,101,1492185,0.0-6.0-95.0,"""","""","""","""","""","""","""","""","""","""","""","""","2021-08-13 21:13:55",70.93.250.3,"Mozilla/5.0 (Windows NT 10.0; Win64; x64; rv:91.0) Gecko/20100101 Firefox/91.0",,Firefox,91.0,Windows,10.0,5f461dd6c139dd6b46c7596cbd57cd79
203,1,"""","""","""","""","""",sampler,102,1492185,0.0-6.0-96.0,"""","""","""","""","""","""","""","""","""","""","""","""","2021-08-13 21:13:55",70.93.250.3,"Mozilla/5.0 (Windows NT 10.0; Win64; x64; rv:91.0) Gecko/20100101 Firefox/91.0",,Firefox,91.0,Windows,10.0,5f461dd6c139dd6b46c7596cbd57cd79
203,1,"""","""","""","""","""",sampler,103,1492185,0.0-6.0-97.0,"""","""","""","""","""","""","""","""","""","""","""","""","2021-08-13 21:13:55",70.93.250.3,"Mozilla/5.0 (Windows NT 10.0; Win64; x64; rv:91.0) Gecko/20100101 Firefox/91.0",,Firefox,91.0,Windows,10.0,5f461dd6c139dd6b46c7596cbd57cd79
203,1,"""","""","""","""","""",sampler,104,1492185,0.0-6.0-98.0,"""","""","""","""","""","""","""","""","""","""","""","""","2021-08-13 21:13:55",70.93.250.3,"Mozilla/5.0 (Windows NT 10.0; Win64; x64; rv:91.0) Gecko/20100101 Firefox/91.0",,Firefox,91.0,Windows,10.0,5f461dd6c139dd6b46c7596cbd57cd79
203,1,"""","""","""","""","""",sampler,105,1492185,0.0-6.0-99.0,"""","""","""","""","""","""","""","""","""","""","""","""","2021-08-13 21:13:55",70.93.250.3,"Mozilla/5.0 (Windows NT 10.0; Win64; x64; rv:91.0) Gecko/20100101 Firefox/91.0",,Firefox,91.0,Windows,10.0,5f461dd6c139dd6b46c7596cbd57cd79
203,1,"""","""","""","""","""",sampler,106,1492186,0.0-6.0-100.0,"""","""","""","""","""","""","""","""","""","""","""","""","2021-08-13 21:13:55",70.93.250.3,"Mozilla/5.0 (Windows NT 10.0; Win64; x64; rv:91.0) Gecko/20100101 Firefox/91.0",,Firefox,91.0,Windows,10.0,5f461dd6c139dd6b46c7596cbd57cd79
203,1,"""","""","""","""","""",sampler,107,1492186,0.0-6.0-101.0,"""","""","""","""","""","""","""","""","""","""","""","""","2021-08-13 21:13:55",70.93.250.3,"Mozilla/5.0 (Windows NT 10.0; Win64; x64; rv:91.0) Gecko/20100101 Firefox/91.0",,Firefox,91.0,Windows,10.0,5f461dd6c139dd6b46c7596cbd57cd79
203,1,"""","""","""","""","""",sampler,108,1492187,0.0-6.0-102.0,"""","""","""","""","""","""","""","""","""","""","""","""","2021-08-13 21:13:55",70.93.250.3,"Mozilla/5.0 (Windows NT 10.0; Win64; x64; rv:91.0) Gecko/20100101 Firefox/91.0",,Firefox,91.0,Windows,10.0,5f461dd6c139dd6b46c7596cbd57cd79
203,1,"""","""","""","""","""",sampler,109,1492187,0.0-6.0-103.0,"""","""","""","""","""","""","""","""","""","""","""","""","2021-08-13 21:13:55",70.93.250.3,"Mozilla/5.0 (Windows NT 10.0; Win64; x64; rv:91.0) Gecko/20100101 Firefox/91.0",,Firefox,91.0,Windows,10.0,5f461dd6c139dd6b46c7596cbd57cd79
203,1,"""","""","""","""","""",sampler,110,1492187,0.0-6.0-104.0,"""","""","""","""","""","""","""","""","""","""","""","""","2021-08-13 21:13:55",70.93.250.3,"Mozilla/5.0 (Windows NT 10.0; Win64; x64; rv:91.0) Gecko/20100101 Firefox/91.0",,Firefox,91.0,Windows,10.0,5f461dd6c139dd6b46c7596cbd57cd79
203,1,"""","""","""","""","""",sampler,111,1492187,0.0-6.0-105.0,"""","""","""","""","""","""","""","""","""","""","""","""","2021-08-13 21:13:55",70.93.250.3,"Mozilla/5.0 (Windows NT 10.0; Win64; x64; rv:91.0) Gecko/20100101 Firefox/91.0",,Firefox,91.0,Windows,10.0,5f461dd6c139dd6b46c7596cbd57cd79
203,1,"""","""","""","""","""",sampler,112,1492187,0.0-6.0-106.0,"""","""","""","""","""","""","""","""","""","""","""","""","2021-08-13 21:13:55",70.93.250.3,"Mozilla/5.0 (Windows NT 10.0; Win64; x64; rv:91.0) Gecko/20100101 Firefox/91.0",,Firefox,91.0,Windows,10.0,5f461dd6c139dd6b46c7596cbd57cd79
203,1,"""","""","""","""","""",sampler,113,1492187,0.0-6.0-107.0,"""","""","""","""","""","""","""","""","""","""","""","""","2021-08-13 21:13:55",70.93.250.3,"Mozilla/5.0 (Windows NT 10.0; Win64; x64; rv:91.0) Gecko/20100101 Firefox/91.0",,Firefox,91.0,Windows,10.0,5f461dd6c139dd6b46c7596cbd57cd79
203,1,"""","""","""","""","""",sampler,114,1492188,0.0-6.0-108.0,"""","""","""","""","""","""","""","""","""","""","""","""","2021-08-13 21:13:55",70.93.250.3,"Mozilla/5.0 (Windows NT 10.0; Win64; x64; rv:91.0) Gecko/20100101 Firefox/91.0",,Firefox,91.0,Windows,10.0,5f461dd6c139dd6b46c7596cbd57cd79
203,1,"""","""","""","""","""",sampler,115,1492188,0.0-6.0-109.0,"""","""","""","""","""","""","""","""","""","""","""","""","2021-08-13 21:13:55",70.93.250.3,"Mozilla/5.0 (Windows NT 10.0; Win64; x64; rv:91.0) Gecko/20100101 Firefox/91.0",,Firefox,91.0,Windows,10.0,5f461dd6c139dd6b46c7596cbd57cd79
203,1,"""","""","""","""","""",sampler,116,1492188,0.0-6.0-110.0,"""","""","""","""","""","""","""","""","""","""","""","""","2021-08-13 21:13:55",70.93.250.3,"Mozilla/5.0 (Windows NT 10.0; Win64; x64; rv:91.0) Gecko/20100101 Firefox/91.0",,Firefox,91.0,Windows,10.0,5f461dd6c139dd6b46c7596cbd57cd79
203,1,"""","""","""","""","""",sampler,117,1492188,0.0-6.0-111.0,"""","""","""","""","""","""","""","""","""","""","""","""","2021-08-13 21:13:55",70.93.250.3,"Mozilla/5.0 (Windows NT 10.0; Win64; x64; rv:91.0) Gecko/20100101 Firefox/91.0",,Firefox,91.0,Windows,10.0,5f461dd6c139dd6b46c7596cbd57cd79
203,1,"""","""","""","""","""",sampler,118,1492189,0.0-6.0-112.0,"""","""","""","""","""","""","""","""","""","""","""","""","2021-08-13 21:13:55",70.93.250.3,"Mozilla/5.0 (Windows NT 10.0; Win64; x64; rv:91.0) Gecko/20100101 Firefox/91.0",,Firefox,91.0,Windows,10.0,5f461dd6c139dd6b46c7596cbd57cd79
203,1,"""","""","""","""","""",sampler,119,1492189,0.0-6.0-113.0,"""","""","""","""","""","""","""","""","""","""","""","""","2021-08-13 21:13:55",70.93.250.3,"Mozilla/5.0 (Windows NT 10.0; Win64; x64; rv:91.0) Gecko/20100101 Firefox/91.0",,Firefox,91.0,Windows,10.0,5f461dd6c139dd6b46c7596cbd57cd79
203,1,"""","""","""","""","""",sampler,120,1492189,0.0-6.0-114.0,"""","""","""","""","""","""","""","""","""","""","""","""","2021-08-13 21:13:55",70.93.250.3,"Mozilla/5.0 (Windows NT 10.0; Win64; x64; rv:91.0) Gecko/20100101 Firefox/91.0",,Firefox,91.0,Windows,10.0,5f461dd6c139dd6b46c7596cbd57cd79
203,1,"""","""","""","""","""",sampler,121,1492189,0.0-6.0-115.0,"""","""","""","""","""","""","""","""","""","""","""","""","2021-08-13 21:13:55",70.93.250.3,"Mozilla/5.0 (Windows NT 10.0; Win64; x64; rv:91.0) Gecko/20100101 Firefox/91.0",,Firefox,91.0,Windows,10.0,5f461dd6c139dd6b46c7596cbd57cd79
203,1,"""","""","""","""","""",sampler,122,1492189,0.0-6.0-116.0,"""","""","""","""","""","""","""","""","""","""","""","""","2021-08-13 21:13:55",70.93.250.3,"Mozilla/5.0 (Windows NT 10.0; Win64; x64; rv:91.0) Gecko/20100101 Firefox/91.0",,Firefox,91.0,Windows,10.0,5f461dd6c139dd6b46c7596cbd57cd79
203,1,"""","""","""","""","""",sampler,123,1492189,0.0-6.0-117.0,"""","""","""","""","""","""","""","""","""","""","""","""","2021-08-13 21:13:55",70.93.250.3,"Mozilla/5.0 (Windows NT 10.0; Win64; x64; rv:91.0) Gecko/20100101 Firefox/91.0",,Firefox,91.0,Windows,10.0,5f461dd6c139dd6b46c7596cbd57cd79
203,1,"""","""","""","""","""",sampler,124,1492190,0.0-6.0-118.0,"""","""","""","""","""","""","""","""","""","""","""","""","2021-08-13 21:13:55",70.93.250.3,"Mozilla/5.0 (Windows NT 10.0; Win64; x64; rv:91.0) Gecko/20100101 Firefox/91.0",,Firefox,91.0,Windows,10.0,5f461dd6c139dd6b46c7596cbd57cd79
203,1,"""","""","""","""","""",sampler,125,1492190,0.0-6.0-119.0,"""","""","""","""","""","""","""","""","""","""","""","""","2021-08-13 21:13:55",70.93.250.3,"Mozilla/5.0 (Windows NT 10.0; Win64; x64; rv:91.0) Gecko/20100101 Firefox/91.0",,Firefox,91.0,Windows,10.0,5f461dd6c139dd6b46c7596cbd57cd79
203,1,"""","""","""","""","""",sampler,126,1492190,0.0-6.0-120.0,"""","""","""","""","""","""","""","""","""","""","""","""","2021-08-13 21:13:55",70.93.250.3,"Mozilla/5.0 (Windows NT 10.0; Win64; x64; rv:91.0) Gecko/20100101 Firefox/91.0",,Firefox,91.0,Windows,10.0,5f461dd6c139dd6b46c7596cbd57cd79
203,1,"""","""","""","""","""",sampler,127,1492190,0.0-6.0-121.0,"""","""","""","""","""","""","""","""","""","""","""","""","2021-08-13 21:13:55",70.93.250.3,"Mozilla/5.0 (Windows NT 10.0; Win64; x64; rv:91.0) Gecko/20100101 Firefox/91.0",,Firefox,91.0,Windows,10.0,5f461dd6c139dd6b46c7596cbd57cd79
203,1,"""","""","""","""","""",sampler,128,1492190,0.0-6.0-122.0,"""","""","""","""","""","""","""","""","""","""","""","""","2021-08-13 21:13:55",70.93.250.3,"Mozilla/5.0 (Windows NT 10.0; Win64; x64; rv:91.0) Gecko/20100101 Firefox/91.0",,Firefox,91.0,Windows,10.0,5f461dd6c139dd6b46c7596cbd57cd79
203,1,"""","""","""","""","""",sampler,129,1492191,0.0-6.0-123.0,"""","""","""","""","""","""","""","""","""","""","""","""","2021-08-13 21:13:55",70.93.250.3,"Mozilla/5.0 (Windows NT 10.0; Win64; x64; rv:91.0) Gecko/20100101 Firefox/91.0",,Firefox,91.0,Windows,10.0,5f461dd6c139dd6b46c7596cbd57cd79
203,1,"""","""","""","""","""",sampler,130,1492191,0.0-6.0-124.0,"""","""","""","""","""","""","""","""","""","""","""","""","2021-08-13 21:13:55",70.93.250.3,"Mozilla/5.0 (Windows NT 10.0; Win64; x64; rv:91.0) Gecko/20100101 Firefox/91.0",,Firefox,91.0,Windows,10.0,5f461dd6c139dd6b46c7596cbd57cd79
203,1,"""","""","""","""","""",sampler,131,1492191,0.0-6.0-125.0,"""","""","""","""","""","""","""","""","""","""","""","""","2021-08-13 21:13:55",70.93.250.3,"Mozilla/5.0 (Windows NT 10.0; Win64; x64; rv:91.0) Gecko/20100101 Firefox/91.0",,Firefox,91.0,Windows,10.0,5f461dd6c139dd6b46c7596cbd57cd79
203,1,"""","""","""","""","""",sampler,132,1492191,0.0-6.0-126.0,"""","""","""","""","""","""","""","""","""","""","""","""","2021-08-13 21:13:55",70.93.250.3,"Mozilla/5.0 (Windows NT 10.0; Win64; x64; rv:91.0) Gecko/20100101 Firefox/91.0",,Firefox,91.0,Windows,10.0,5f461dd6c139dd6b46c7596cbd57cd79
203,1,"""","""","""","""","""",sampler,133,1492192,0.0-6.0-127.0,"""","""","""","""","""","""","""","""","""","""","""","""","2021-08-13 21:13:55",70.93.250.3,"Mozilla/5.0 (Windows NT 10.0; Win64; x64; rv:91.0) Gecko/20100101 Firefox/91.0",,Firefox,91.0,Windows,10.0,5f461dd6c139dd6b46c7596cbd57cd79
203,1,"""","""","""","""","""",sampler,134,1492192,0.0-6.0-128.0,"""","""","""","""","""","""","""","""","""","""","""","""","2021-08-13 21:13:55",70.93.250.3,"Mozilla/5.0 (Windows NT 10.0; Win64; x64; rv:91.0) Gecko/20100101 Firefox/91.0",,Firefox,91.0,Windows,10.0,5f461dd6c139dd6b46c7596cbd57cd79
203,1,"""","""","""","""","""",sampler,135,1492192,0.0-6.0-129.0,"""","""","""","""","""","""","""","""","""","""","""","""","2021-08-13 21:13:55",70.93.250.3,"Mozilla/5.0 (Windows NT 10.0; Win64; x64; rv:91.0) Gecko/20100101 Firefox/91.0",,Firefox,91.0,Windows,10.0,5f461dd6c139dd6b46c7596cbd57cd79
203,1,"""","""","""","""","""",sampler,136,1492192,0.0-6.0-130.0,"""","""","""","""","""","""","""","""","""","""","""","""","2021-08-13 21:13:55",70.93.250.3,"Mozilla/5.0 (Windows NT 10.0; Win64; x64; rv:91.0) Gecko/20100101 Firefox/91.0",,Firefox,91.0,Windows,10.0,5f461dd6c139dd6b46c7596cbd57cd79
203,1,"""","""","""","""","""",sampler,137,1492192,0.0-6.0-131.0,"""","""","""","""","""","""","""","""","""","""","""","""","2021-08-13 21:13:55",70.93.250.3,"Mozilla/5.0 (Windows NT 10.0; Win64; x64; rv:91.0) Gecko/20100101 Firefox/91.0",,Firefox,91.0,Windows,10.0,5f461dd6c139dd6b46c7596cbd57cd79
203,1,"""","""","""","""","""",sampler,138,1492192,0.0-6.0-132.0,"""","""","""","""","""","""","""","""","""","""","""","""","2021-08-13 21:13:55",70.93.250.3,"Mozilla/5.0 (Windows NT 10.0; Win64; x64; rv:91.0) Gecko/20100101 Firefox/91.0",,Firefox,91.0,Windows,10.0,5f461dd6c139dd6b46c7596cbd57cd79
203,1,"""","""","""","""","""",sampler,139,1492193,0.0-6.0-133.0,"""","""","""","""","""","""","""","""","""","""","""","""","2021-08-13 21:13:55",70.93.250.3,"Mozilla/5.0 (Windows NT 10.0; Win64; x64; rv:91.0) Gecko/20100101 Firefox/91.0",,Firefox,91.0,Windows,10.0,5f461dd6c139dd6b46c7596cbd57cd79
203,1,"""","""","""","""","""",sampler,140,1492193,0.0-6.0-134.0,"""","""","""","""","""","""","""","""","""","""","""","""","2021-08-13 21:13:55",70.93.250.3,"Mozilla/5.0 (Windows NT 10.0; Win64; x64; rv:91.0) Gecko/20100101 Firefox/91.0",,Firefox,91.0,Windows,10.0,5f461dd6c139dd6b46c7596cbd57cd79
203,1,"""","""","""","""","""",sampler,141,1492193,0.0-6.0-135.0,"""","""","""","""","""","""","""","""","""","""","""","""","2021-08-13 21:13:55",70.93.250.3,"Mozilla/5.0 (Windows NT 10.0; Win64; x64; rv:91.0) Gecko/20100101 Firefox/91.0",,Firefox,91.0,Windows,10.0,5f461dd6c139dd6b46c7596cbd57cd79
203,1,"""","""","""","""","""",sampler,142,1492194,0.0-6.0-136.0,"""","""","""","""","""","""","""","""","""","""","""","""","2021-08-13 21:13:55",70.93.250.3,"Mozilla/5.0 (Windows NT 10.0; Win64; x64; rv:91.0) Gecko/20100101 Firefox/91.0",,Firefox,91.0,Windows,10.0,5f461dd6c139dd6b46c7596cbd57cd79
203,1,"""","""","""","""","""",sampler,143,1492194,0.0-6.0-137.0,"""","""","""","""","""","""","""","""","""","""","""","""","2021-08-13 21:13:55",70.93.250.3,"Mozilla/5.0 (Windows NT 10.0; Win64; x64; rv:91.0) Gecko/20100101 Firefox/91.0",,Firefox,91.0,Windows,10.0,5f461dd6c139dd6b46c7596cbd57cd79
203,1,"""","""","""","""","""",sampler,144,1492194,0.0-6.0-138.0,"""","""","""","""","""","""","""","""","""","""","""","""","2021-08-13 21:13:55",70.93.250.3,"Mozilla/5.0 (Windows NT 10.0; Win64; x64; rv:91.0) Gecko/20100101 Firefox/91.0",,Firefox,91.0,Windows,10.0,5f461dd6c139dd6b46c7596cbd57cd79
203,1,"""","""","""","""","""",sampler,145,1492194,0.0-6.0-139.0,"""","""","""","""","""","""","""","""","""","""","""","""","2021-08-13 21:13:55",70.93.250.3,"Mozilla/5.0 (Windows NT 10.0; Win64; x64; rv:91.0) Gecko/20100101 Firefox/91.0",,Firefox,91.0,Windows,10.0,5f461dd6c139dd6b46c7596cbd57cd79
203,1,"""","""","""","""","""",sampler,146,1492194,0.0-6.0-140.0,"""","""","""","""","""","""","""","""","""","""","""","""","2021-08-13 21:13:55",70.93.250.3,"Mozilla/5.0 (Windows NT 10.0; Win64; x64; rv:91.0) Gecko/20100101 Firefox/91.0",,Firefox,91.0,Windows,10.0,5f461dd6c139dd6b46c7596cbd57cd79
203,1,"""","""","""","""","""",sampler,147,1492194,0.0-6.0-141.0,"""","""","""","""","""","""","""","""","""","""","""","""","2021-08-13 21:13:55",70.93.250.3,"Mozilla/5.0 (Windows NT 10.0; Win64; x64; rv:91.0) Gecko/20100101 Firefox/91.0",,Firefox,91.0,Windows,10.0,5f461dd6c139dd6b46c7596cbd57cd79
203,1,"""","""","""","""","""",sampler,148,1492194,0.0-6.0-142.0,"""","""","""","""","""","""","""","""","""","""","""","""","2021-08-13 21:13:55",70.93.250.3,"Mozilla/5.0 (Windows NT 10.0; Win64; x64; rv:91.0) Gecko/20100101 Firefox/91.0",,Firefox,91.0,Windows,10.0,5f461dd6c139dd6b46c7596cbd57cd79
203,1,"""","""","""","""","""",sampler,149,1492194,0.0-6.0-143.0,"""","""","""","""","""","""","""","""","""","""","""","""","2021-08-13 21:13:55",70.93.250.3,"Mozilla/5.0 (Windows NT 10.0; Win64; x64; rv:91.0) Gecko/20100101 Firefox/91.0",,Firefox,91.0,Windows,10.0,5f461dd6c139dd6b46c7596cbd57cd79
203,1,"""","""","""","""","""",sampler,150,1492195,0.0-6.0-144.0,"""","""","""","""","""","""","""","""","""","""","""","""","2021-08-13 21:13:55",70.93.250.3,"Mozilla/5.0 (Windows NT 10.0; Win64; x64; rv:91.0) Gecko/20100101 Firefox/91.0",,Firefox,91.0,Windows,10.0,5f461dd6c139dd6b46c7596cbd57cd79
203,1,"""","""","""","""","""",sampler,151,1492195,0.0-6.0-145.0,"""","""","""","""","""","""","""","""","""","""","""","""","2021-08-13 21:13:55",70.93.250.3,"Mozilla/5.0 (Windows NT 10.0; Win64; x64; rv:91.0) Gecko/20100101 Firefox/91.0",,Firefox,91.0,Windows,10.0,5f461dd6c139dd6b46c7596cbd57cd79
203,1,"""","""","""","""","""",sampler,152,1492195,0.0-6.0-146.0,"""","""","""","""","""","""","""","""","""","""","""","""","2021-08-13 21:13:55",70.93.250.3,"Mozilla/5.0 (Windows NT 10.0; Win64; x64; rv:91.0) Gecko/20100101 Firefox/91.0",,Firefox,91.0,Windows,10.0,5f461dd6c139dd6b46c7596cbd57cd79
203,1,"""","""","""","""","""",sampler,153,1492195,0.0-6.0-147.0,"""","""","""","""","""","""","""","""","""","""","""","""","2021-08-13 21:13:55",70.93.250.3,"Mozilla/5.0 (Windows NT 10.0; Win64; x64; rv:91.0) Gecko/20100101 Firefox/91.0",,Firefox,91.0,Windows,10.0,5f461dd6c139dd6b46c7596cbd57cd79
203,1,"""","""","""","""","""",sampler,154,1492196,0.0-6.0-148.0,"""","""","""","""","""","""","""","""","""","""","""","""","2021-08-13 21:13:55",70.93.250.3,"Mozilla/5.0 (Windows NT 10.0; Win64; x64; rv:91.0) Gecko/20100101 Firefox/91.0",,Firefox,91.0,Windows,10.0,5f461dd6c139dd6b46c7596cbd57cd79
203,1,"""","""","""","""","""",sampler,155,1492196,0.0-6.0-149.0,"""","""","""","""","""","""","""","""","""","""","""","""","2021-08-13 21:13:55",70.93.250.3,"Mozilla/5.0 (Windows NT 10.0; Win64; x64; rv:91.0) Gecko/20100101 Firefox/91.0",,Firefox,91.0,Windows,10.0,5f461dd6c139dd6b46c7596cbd57cd79
203,1,"""","""","""","""","""",sampler,156,1492196,0.0-6.0-150.0,"""","""","""","""","""","""","""","""","""","""","""","""","2021-08-13 21:13:55",70.93.250.3,"Mozilla/5.0 (Windows NT 10.0; Win64; x64; rv:91.0) Gecko/20100101 Firefox/91.0",,Firefox,91.0,Windows,10.0,5f461dd6c139dd6b46c7596cbd57cd79
203,1,"""","""","""","""","""",sampler,157,1492196,0.0-6.0-151.0,"""","""","""","""","""","""","""","""","""","""","""","""","2021-08-13 21:13:55",70.93.250.3,"Mozilla/5.0 (Windows NT 10.0; Win64; x64; rv:91.0) Gecko/20100101 Firefox/91.0",,Firefox,91.0,Windows,10.0,5f461dd6c139dd6b46c7596cbd57cd79
203,1,"""","""","""","""","""",sampler,158,1492196,0.0-6.0-152.0,"""","""","""","""","""","""","""","""","""","""","""","""","2021-08-13 21:13:55",70.93.250.3,"Mozilla/5.0 (Windows NT 10.0; Win64; x64; rv:91.0) Gecko/20100101 Firefox/91.0",,Firefox,91.0,Windows,10.0,5f461dd6c139dd6b46c7596cbd57cd79
203,1,"""","""","""","""","""",sampler,159,1492196,0.0-6.0-153.0,"""","""","""","""","""","""","""","""","""","""","""","""","2021-08-13 21:13:55",70.93.250.3,"Mozilla/5.0 (Windows NT 10.0; Win64; x64; rv:91.0) Gecko/20100101 Firefox/91.0",,Firefox,91.0,Windows,10.0,5f461dd6c139dd6b46c7596cbd57cd79
203,1,"""","""","""","""","""",sampler,160,1492197,0.0-6.0-154.0,"""","""","""","""","""","""","""","""","""","""","""","""","2021-08-13 21:13:55",70.93.250.3,"Mozilla/5.0 (Windows NT 10.0; Win64; x64; rv:91.0) Gecko/20100101 Firefox/91.0",,Firefox,91.0,Windows,10.0,5f461dd6c139dd6b46c7596cbd57cd79
203,1,"""","""","""","""","""",sampler,161,1492197,0.0-6.0-155.0,"""","""","""","""","""","""","""","""","""","""","""","""","2021-08-13 21:13:55",70.93.250.3,"Mozilla/5.0 (Windows NT 10.0; Win64; x64; rv:91.0) Gecko/20100101 Firefox/91.0",,Firefox,91.0,Windows,10.0,5f461dd6c139dd6b46c7596cbd57cd79
203,1,"""","""","""","""","""",sampler,162,1492197,0.0-6.0-156.0,"""","""","""","""","""","""","""","""","""","""","""","""","2021-08-13 21:13:55",70.93.250.3,"Mozilla/5.0 (Windows NT 10.0; Win64; x64; rv:91.0) Gecko/20100101 Firefox/91.0",,Firefox,91.0,Windows,10.0,5f461dd6c139dd6b46c7596cbd57cd79
203,1,"""","""","""","""","""",sampler,163,1492197,0.0-6.0-157.0,"""","""","""","""","""","""","""","""","""","""","""","""","2021-08-13 21:13:55",70.93.250.3,"Mozilla/5.0 (Windows NT 10.0; Win64; x64; rv:91.0) Gecko/20100101 Firefox/91.0",,Firefox,91.0,Windows,10.0,5f461dd6c139dd6b46c7596cbd57cd79
203,1,"""","""","""","""","""",sampler,164,1492197,0.0-6.0-158.0,"""","""","""","""","""","""","""","""","""","""","""","""","2021-08-13 21:13:55",70.93.250.3,"Mozilla/5.0 (Windows NT 10.0; Win64; x64; rv:91.0) Gecko/20100101 Firefox/91.0",,Firefox,91.0,Windows,10.0,5f461dd6c139dd6b46c7596cbd57cd79
203,1,"""","""","""","""","""",sampler,165,1492198,0.0-6.0-159.0,"""","""","""","""","""","""","""","""","""","""","""","""","2021-08-13 21:13:55",70.93.250.3,"Mozilla/5.0 (Windows NT 10.0; Win64; x64; rv:91.0) Gecko/20100101 Firefox/91.0",,Firefox,91.0,Windows,10.0,5f461dd6c139dd6b46c7596cbd57cd79
203,1,"""","""","""","""","""",sampler,166,1492198,0.0-6.0-160.0,"""","""","""","""","""","""","""","""","""","""","""","""","2021-08-13 21:13:55",70.93.250.3,"Mozilla/5.0 (Windows NT 10.0; Win64; x64; rv:91.0) Gecko/20100101 Firefox/91.0",,Firefox,91.0,Windows,10.0,5f461dd6c139dd6b46c7596cbd57cd79
203,1,"""","""","""","""","""",sampler,167,1492198,0.0-6.0-161.0,"""","""","""","""","""","""","""","""","""","""","""","""","2021-08-13 21:13:55",70.93.250.3,"Mozilla/5.0 (Windows NT 10.0; Win64; x64; rv:91.0) Gecko/20100101 Firefox/91.0",,Firefox,91.0,Windows,10.0,5f461dd6c139dd6b46c7596cbd57cd79
203,1,"""","""","""","""","""",sampler,168,1492198,0.0-6.0-162.0,"""","""","""","""","""","""","""","""","""","""","""","""","2021-08-13 21:13:55",70.93.250.3,"Mozilla/5.0 (Windows NT 10.0; Win64; x64; rv:91.0) Gecko/20100101 Firefox/91.0",,Firefox,91.0,Windows,10.0,5f461dd6c139dd6b46c7596cbd57cd79
203,1,"""","""","""","""","""",sampler,169,1492198,0.0-6.0-163.0,"""","""","""","""","""","""","""","""","""","""","""","""","2021-08-13 21:13:55",70.93.250.3,"Mozilla/5.0 (Windows NT 10.0; Win64; x64; rv:91.0) Gecko/20100101 Firefox/91.0",,Firefox,91.0,Windows,10.0,5f461dd6c139dd6b46c7596cbd57cd79
203,1,"""","""","""","""","""",sampler,170,1492198,0.0-6.0-164.0,"""","""","""","""","""","""","""","""","""","""","""","""","2021-08-13 21:13:55",70.93.250.3,"Mozilla/5.0 (Windows NT 10.0; Win64; x64; rv:91.0) Gecko/20100101 Firefox/91.0",,Firefox,91.0,Windows,10.0,5f461dd6c139dd6b46c7596cbd57cd79
203,1,"""","""","""","""","""",sampler,171,1492199,0.0-6.0-165.0,"""","""","""","""","""","""","""","""","""","""","""","""","2021-08-13 21:13:55",70.93.250.3,"Mozilla/5.0 (Windows NT 10.0; Win64; x64; rv:91.0) Gecko/20100101 Firefox/91.0",,Firefox,91.0,Windows,10.0,5f461dd6c139dd6b46c7596cbd57cd79
203,1,"""","""","""","""","""",sampler,172,1492199,0.0-6.0-166.0,"""","""","""","""","""","""","""","""","""","""","""","""","2021-08-13 21:13:55",70.93.250.3,"Mozilla/5.0 (Windows NT 10.0; Win64; x64; rv:91.0) Gecko/20100101 Firefox/91.0",,Firefox,91.0,Windows,10.0,5f461dd6c139dd6b46c7596cbd57cd79
203,1,"""","""","""","""","""",sampler,173,1492200,0.0-6.0-167.0,"""","""","""","""","""","""","""","""","""","""","""","""","2021-08-13 21:13:55",70.93.250.3,"Mozilla/5.0 (Windows NT 10.0; Win64; x64; rv:91.0) Gecko/20100101 Firefox/91.0",,Firefox,91.0,Windows,10.0,5f461dd6c139dd6b46c7596cbd57cd79
203,1,"""","""","""","""","""",sampler,174,1492200,0.0-6.0-168.0,"""","""","""","""","""","""","""","""","""","""","""","""","2021-08-13 21:13:55",70.93.250.3,"Mozilla/5.0 (Windows NT 10.0; Win64; x64; rv:91.0) Gecko/20100101 Firefox/91.0",,Firefox,91.0,Windows,10.0,5f461dd6c139dd6b46c7596cbd57cd79
203,1,"""","""","""","""","""",sampler,175,1492200,0.0-6.0-169.0,"""","""","""","""","""","""","""","""","""","""","""","""","2021-08-13 21:13:55",70.93.250.3,"Mozilla/5.0 (Windows NT 10.0; Win64; x64; rv:91.0) Gecko/20100101 Firefox/91.0",,Firefox,91.0,Windows,10.0,5f461dd6c139dd6b46c7596cbd57cd79
203,1,"""","""","""","""","""",sampler,176,1492201,0.0-6.0-170.0,"""","""","""","""","""","""","""","""","""","""","""","""","2021-08-13 21:13:55",70.93.250.3,"Mozilla/5.0 (Windows NT 10.0; Win64; x64; rv:91.0) Gecko/20100101 Firefox/91.0",,Firefox,91.0,Windows,10.0,5f461dd6c139dd6b46c7596cbd57cd79
203,1,"""","""","""","""","""",sampler,177,1492201,0.0-6.0-171.0,"""","""","""","""","""","""","""","""","""","""","""","""","2021-08-13 21:13:55",70.93.250.3,"Mozilla/5.0 (Windows NT 10.0; Win64; x64; rv:91.0) Gecko/20100101 Firefox/91.0",,Firefox,91.0,Windows,10.0,5f461dd6c139dd6b46c7596cbd57cd79
203,1,"""","""","""","""","""",sampler,178,1492201,0.0-6.0-172.0,"""","""","""","""","""","""","""","""","""","""","""","""","2021-08-13 21:13:55",70.93.250.3,"Mozilla/5.0 (Windows NT 10.0; Win64; x64; rv:91.0) Gecko/20100101 Firefox/91.0",,Firefox,91.0,Windows,10.0,5f461dd6c139dd6b46c7596cbd57cd79
203,1,"""","""","""","""","""",sampler,179,1492201,0.0-6.0-173.0,"""","""","""","""","""","""","""","""","""","""","""","""","2021-08-13 21:13:55",70.93.250.3,"Mozilla/5.0 (Windows NT 10.0; Win64; x64; rv:91.0) Gecko/20100101 Firefox/91.0",,Firefox,91.0,Windows,10.0,5f461dd6c139dd6b46c7596cbd57cd79
203,1,"""","""","""","""","""",sampler,180,1492201,0.0-6.0-174.0,"""","""","""","""","""","""","""","""","""","""","""","""","2021-08-13 21:13:55",70.93.250.3,"Mozilla/5.0 (Windows NT 10.0; Win64; x64; rv:91.0) Gecko/20100101 Firefox/91.0",,Firefox,91.0,Windows,10.0,5f461dd6c139dd6b46c7596cbd57cd79
203,1,"""","""","""","""","""",sampler,181,1492202,0.0-6.0-175.0,"""","""","""","""","""","""","""","""","""","""","""","""","2021-08-13 21:13:55",70.93.250.3,"Mozilla/5.0 (Windows NT 10.0; Win64; x64; rv:91.0) Gecko/20100101 Firefox/91.0",,Firefox,91.0,Windows,10.0,5f461dd6c139dd6b46c7596cbd57cd79
203,1,"""","""","""","""","""",sampler,182,1492202,0.0-6.0-176.0,"""","""","""","""","""","""","""","""","""","""","""","""","2021-08-13 21:13:55",70.93.250.3,"Mozilla/5.0 (Windows NT 10.0; Win64; x64; rv:91.0) Gecko/20100101 Firefox/91.0",,Firefox,91.0,Windows,10.0,5f461dd6c139dd6b46c7596cbd57cd79
203,1,"""","""","""","""","""",sampler,183,1492202,0.0-6.0-177.0,"""","""","""","""","""","""","""","""","""","""","""","""","2021-08-13 21:13:55",70.93.250.3,"Mozilla/5.0 (Windows NT 10.0; Win64; x64; rv:91.0) Gecko/20100101 Firefox/91.0",,Firefox,91.0,Windows,10.0,5f461dd6c139dd6b46c7596cbd57cd79
203,1,"""","""","""","""","""",sampler,184,1492202,0.0-6.0-178.0,"""","""","""","""","""","""","""","""","""","""","""","""","2021-08-13 21:13:55",70.93.250.3,"Mozilla/5.0 (Windows NT 10.0; Win64; x64; rv:91.0) Gecko/20100101 Firefox/91.0",,Firefox,91.0,Windows,10.0,5f461dd6c139dd6b46c7596cbd57cd79
203,1,"""","""","""","""","""",sampler,185,1492202,0.0-6.0-179.0,"""","""","""","""","""","""","""","""","""","""","""","""","2021-08-13 21:13:55",70.93.250.3,"Mozilla/5.0 (Windows NT 10.0; Win64; x64; rv:91.0) Gecko/20100101 Firefox/91.0",,Firefox,91.0,Windows,10.0,5f461dd6c139dd6b46c7596cbd57cd79
203,1,"""","""","""","""","""",sampler,186,1492202,0.0-6.0-180.0,"""","""","""","""","""","""","""","""","""","""","""","""","2021-08-13 21:13:55",70.93.250.3,"Mozilla/5.0 (Windows NT 10.0; Win64; x64; rv:91.0) Gecko/20100101 Firefox/91.0",,Firefox,91.0,Windows,10.0,5f461dd6c139dd6b46c7596cbd57cd79
203,1,"""","""","""","""","""",sampler,187,1492202,0.0-6.0-181.0,"""","""","""","""","""","""","""","""","""","""","""","""","2021-08-13 21:13:55",70.93.250.3,"Mozilla/5.0 (Windows NT 10.0; Win64; x64; rv:91.0) Gecko/20100101 Firefox/91.0",,Firefox,91.0,Windows,10.0,5f461dd6c139dd6b46c7596cbd57cd79
203,1,"""","""","""","""","""",sampler,188,1492203,0.0-6.0-182.0,"""","""","""","""","""","""","""","""","""","""","""","""","2021-08-13 21:13:55",70.93.250.3,"Mozilla/5.0 (Windows NT 10.0; Win64; x64; rv:91.0) Gecko/20100101 Firefox/91.0",,Firefox,91.0,Windows,10.0,5f461dd6c139dd6b46c7596cbd57cd79
203,1,"""","""","""","""","""",sampler,189,1492203,0.0-6.0-183.0,"""","""","""","""","""","""","""","""","""","""","""","""","2021-08-13 21:13:55",70.93.250.3,"Mozilla/5.0 (Windows NT 10.0; Win64; x64; rv:91.0) Gecko/20100101 Firefox/91.0",,Firefox,91.0,Windows,10.0,5f461dd6c139dd6b46c7596cbd57cd79
203,1,"""","""","""","""","""",sampler,190,1492204,0.0-6.0-184.0,"""","""","""","""","""","""","""","""","""","""","""","""","2021-08-13 21:13:55",70.93.250.3,"Mozilla/5.0 (Windows NT 10.0; Win64; x64; rv:91.0) Gecko/20100101 Firefox/91.0",,Firefox,91.0,Windows,10.0,5f461dd6c139dd6b46c7596cbd57cd79
203,1,"""","""","""","""","""",sampler,191,1492204,0.0-6.0-185.0,"""","""","""","""","""","""","""","""","""","""","""","""","2021-08-13 21:13:55",70.93.250.3,"Mozilla/5.0 (Windows NT 10.0; Win64; x64; rv:91.0) Gecko/20100101 Firefox/91.0",,Firefox,91.0,Windows,10.0,5f461dd6c139dd6b46c7596cbd57cd79
203,1,"""","""","""","""","""",sampler,192,1492204,0.0-6.0-186.0,"""","""","""","""","""","""","""","""","""","""","""","""","2021-08-13 21:13:55",70.93.250.3,"Mozilla/5.0 (Windows NT 10.0; Win64; x64; rv:91.0) Gecko/20100101 Firefox/91.0",,Firefox,91.0,Windows,10.0,5f461dd6c139dd6b46c7596cbd57cd79
203,1,"""","""","""","""","""",sampler,193,1492204,0.0-6.0-187.0,"""","""","""","""","""","""","""","""","""","""","""","""","2021-08-13 21:13:55",70.93.250.3,"Mozilla/5.0 (Windows NT 10.0; Win64; x64; rv:91.0) Gecko/20100101 Firefox/91.0",,Firefox,91.0,Windows,10.0,5f461dd6c139dd6b46c7596cbd57cd79
203,1,"""","""","""","""","""",sampler,194,1492205,0.0-6.0-188.0,"""","""","""","""","""","""","""","""","""","""","""","""","2021-08-13 21:13:55",70.93.250.3,"Mozilla/5.0 (Windows NT 10.0; Win64; x64; rv:91.0) Gecko/20100101 Firefox/91.0",,Firefox,91.0,Windows,10.0,5f461dd6c139dd6b46c7596cbd57cd79
203,1,"""","""","""","""","""",sampler,195,1492205,0.0-6.0-189.0,"""","""","""","""","""","""","""","""","""","""","""","""","2021-08-13 21:13:55",70.93.250.3,"Mozilla/5.0 (Windows NT 10.0; Win64; x64; rv:91.0) Gecko/20100101 Firefox/91.0",,Firefox,91.0,Windows,10.0,5f461dd6c139dd6b46c7596cbd57cd79
203,1,"""","""","""","""","""",sampler,196,1492205,0.0-6.0-190.0,"""","""","""","""","""","""","""","""","""","""","""","""","2021-08-13 21:13:55",70.93.250.3,"Mozilla/5.0 (Windows NT 10.0; Win64; x64; rv:91.0) Gecko/20100101 Firefox/91.0",,Firefox,91.0,Windows,10.0,5f461dd6c139dd6b46c7596cbd57cd79
203,1,"""","""","""","""","""",sampler,197,1492205,0.0-6.0-191.0,"""","""","""","""","""","""","""","""","""","""","""","""","2021-08-13 21:13:55",70.93.250.3,"Mozilla/5.0 (Windows NT 10.0; Win64; x64; rv:91.0) Gecko/20100101 Firefox/91.0",,Firefox,91.0,Windows,10.0,5f461dd6c139dd6b46c7596cbd57cd79
203,1,"""","""","""","""","""",sampler,198,1492206,0.0-6.0-192.0,"""","""","""","""","""","""","""","""","""","""","""","""","2021-08-13 21:13:55",70.93.250.3,"Mozilla/5.0 (Windows NT 10.0; Win64; x64; rv:91.0) Gecko/20100101 Firefox/91.0",,Firefox,91.0,Windows,10.0,5f461dd6c139dd6b46c7596cbd57cd79
203,1,"""","""","""","""","""",sampler,199,1492206,0.0-6.0-193.0,"""","""","""","""","""","""","""","""","""","""","""","""","2021-08-13 21:13:55",70.93.250.3,"Mozilla/5.0 (Windows NT 10.0; Win64; x64; rv:91.0) Gecko/20100101 Firefox/91.0",,Firefox,91.0,Windows,10.0,5f461dd6c139dd6b46c7596cbd57cd79
203,1,"""","""","""","""","""",sampler,200,1492206,0.0-6.0-194.0,"""","""","""","""","""","""","""","""","""","""","""","""","2021-08-13 21:13:55",70.93.250.3,"Mozilla/5.0 (Windows NT 10.0; Win64; x64; rv:91.0) Gecko/20100101 Firefox/91.0",,Firefox,91.0,Windows,10.0,5f461dd6c139dd6b46c7596cbd57cd79
203,1,"""","""","""","""","""",sampler,201,1492206,0.0-6.0-195.0,"""","""","""","""","""","""","""","""","""","""","""","""","2021-08-13 21:13:55",70.93.250.3,"Mozilla/5.0 (Windows NT 10.0; Win64; x64; rv:91.0) Gecko/20100101 Firefox/91.0",,Firefox,91.0,Windows,10.0,5f461dd6c139dd6b46c7596cbd57cd79
203,1,"""","""","""","""","""",sampler,202,1492207,0.0-6.0-196.0,"""","""","""","""","""","""","""","""","""","""","""","""","2021-08-13 21:13:55",70.93.250.3,"Mozilla/5.0 (Windows NT 10.0; Win64; x64; rv:91.0) Gecko/20100101 Firefox/91.0",,Firefox,91.0,Windows,10.0,5f461dd6c139dd6b46c7596cbd57cd79
203,1,"""","""","""","""","""",sampler,203,1492207,0.0-6.0-197.0,"""","""","""","""","""","""","""","""","""","""","""","""","2021-08-13 21:13:55",70.93.250.3,"Mozilla/5.0 (Windows NT 10.0; Win64; x64; rv:91.0) Gecko/20100101 Firefox/91.0",,Firefox,91.0,Windows,10.0,5f461dd6c139dd6b46c7596cbd57cd79
203,1,"""","""","""","""","""",sampler,204,1492207,0.0-6.0-198.0,"""","""","""","""","""","""","""","""","""","""","""","""","2021-08-13 21:13:55",70.93.250.3,"Mozilla/5.0 (Windows NT 10.0; Win64; x64; rv:91.0) Gecko/20100101 Firefox/91.0",,Firefox,91.0,Windows,10.0,5f461dd6c139dd6b46c7596cbd57cd79
203,1,"""","""","""","""","""",sampler,205,1492207,0.0-6.0-199.0,"""","""","""","""","""","""","""","""","""","""","""","""","2021-08-13 21:13:55",70.93.250.3,"Mozilla/5.0 (Windows NT 10.0; Win64; x64; rv:91.0) Gecko/20100101 Firefox/91.0",,Firefox,91.0,Windows,10.0,5f461dd6c139dd6b46c7596cbd57cd79
203,1,"""","""","""","""","""",sampler,206,1492207,0.0-6.0-200.0,"""","""","""","""","""","""","""","""","""","""","""","""","2021-08-13 21:13:55",70.93.250.3,"Mozilla/5.0 (Windows NT 10.0; Win64; x64; rv:91.0) Gecko/20100101 Firefox/91.0",,Firefox,91.0,Windows,10.0,5f461dd6c139dd6b46c7596cbd57cd79
203,1,"""","""","""","""","""",sampler,207,1492207,0.0-6.0-201.0,"""","""","""","""","""","""","""","""","""","""","""","""","2021-08-13 21:13:55",70.93.250.3,"Mozilla/5.0 (Windows NT 10.0; Win64; x64; rv:91.0) Gecko/20100101 Firefox/91.0",,Firefox,91.0,Windows,10.0,5f461dd6c139dd6b46c7596cbd57cd79
203,1,"""","""","""","""","""",sampler,208,1492208,0.0-6.0-202.0,"""","""","""","""","""","""","""","""","""","""","""","""","2021-08-13 21:13:55",70.93.250.3,"Mozilla/5.0 (Windows NT 10.0; Win64; x64; rv:91.0) Gecko/20100101 Firefox/91.0",,Firefox,91.0,Windows,10.0,5f461dd6c139dd6b46c7596cbd57cd79
203,1,"""","""","""","""","""",sampler,209,1492208,0.0-6.0-203.0,"""","""","""","""","""","""","""","""","""","""","""","""","2021-08-13 21:13:55",70.93.250.3,"Mozilla/5.0 (Windows NT 10.0; Win64; x64; rv:91.0) Gecko/20100101 Firefox/91.0",,Firefox,91.0,Windows,10.0,5f461dd6c139dd6b46c7596cbd57cd79
203,1,"""","""","""","""","""",sampler,210,1492208,0.0-6.0-204.0,"""","""","""","""","""","""","""","""","""","""","""","""","2021-08-13 21:13:55",70.93.250.3,"Mozilla/5.0 (Windows NT 10.0; Win64; x64; rv:91.0) Gecko/20100101 Firefox/91.0",,Firefox,91.0,Windows,10.0,5f461dd6c139dd6b46c7596cbd57cd79
203,1,"""","""","""","""","""",sampler,211,1492208,0.0-6.0-205.0,"""","""","""","""","""","""","""","""","""","""","""","""","2021-08-13 21:13:55",70.93.250.3,"Mozilla/5.0 (Windows NT 10.0; Win64; x64; rv:91.0) Gecko/20100101 Firefox/91.0",,Firefox,91.0,Windows,10.0,5f461dd6c139dd6b46c7596cbd57cd79
203,1,"""","""","""","""","""",sampler,212,1492209,0.0-6.0-206.0,"""","""","""","""","""","""","""","""","""","""","""","""","2021-08-13 21:13:55",70.93.250.3,"Mozilla/5.0 (Windows NT 10.0; Win64; x64; rv:91.0) Gecko/20100101 Firefox/91.0",,Firefox,91.0,Windows,10.0,5f461dd6c139dd6b46c7596cbd57cd79
203,1,"""","""","""","""","""",sampler,213,1492209,0.0-6.0-207.0,"""","""","""","""","""","""","""","""","""","""","""","""","2021-08-13 21:13:55",70.93.250.3,"Mozilla/5.0 (Windows NT 10.0; Win64; x64; rv:91.0) Gecko/20100101 Firefox/91.0",,Firefox,91.0,Windows,10.0,5f461dd6c139dd6b46c7596cbd57cd79
203,1,"""","""","""","""","""",sampler,214,1492209,0.0-6.0-208.0,"""","""","""","""","""","""","""","""","""","""","""","""","2021-08-13 21:13:55",70.93.250.3,"Mozilla/5.0 (Windows NT 10.0; Win64; x64; rv:91.0) Gecko/20100101 Firefox/91.0",,Firefox,91.0,Windows,10.0,5f461dd6c139dd6b46c7596cbd57cd79
203,1,"""","""","""","""","""",sampler,215,1492209,0.0-6.0-209.0,"""","""","""","""","""","""","""","""","""","""","""","""","2021-08-13 21:13:55",70.93.250.3,"Mozilla/5.0 (Windows NT 10.0; Win64; x64; rv:91.0) Gecko/20100101 Firefox/91.0",,Firefox,91.0,Windows,10.0,5f461dd6c139dd6b46c7596cbd57cd79
203,1,"""","""","""","""","""",sampler,216,1492209,0.0-6.0-210.0,"""","""","""","""","""","""","""","""","""","""","""","""","2021-08-13 21:13:55",70.93.250.3,"Mozilla/5.0 (Windows NT 10.0; Win64; x64; rv:91.0) Gecko/20100101 Firefox/91.0",,Firefox,91.0,Windows,10.0,5f461dd6c139dd6b46c7596cbd57cd79
203,1,"""","""","""","""","""",sampler,217,1492209,0.0-6.0-211.0,"""","""","""","""","""","""","""","""","""","""","""","""","2021-08-13 21:13:55",70.93.250.3,"Mozilla/5.0 (Windows NT 10.0; Win64; x64; rv:91.0) Gecko/20100101 Firefox/91.0",,Firefox,91.0,Windows,10.0,5f461dd6c139dd6b46c7596cbd57cd79
203,1,"""","""","""","""","""",sampler,218,1492209,0.0-6.0-212.0,"""","""","""","""","""","""","""","""","""","""","""","""","2021-08-13 21:13:55",70.93.250.3,"Mozilla/5.0 (Windows NT 10.0; Win64; x64; rv:91.0) Gecko/20100101 Firefox/91.0",,Firefox,91.0,Windows,10.0,5f461dd6c139dd6b46c7596cbd57cd79
203,1,"""","""","""","""","""",sampler,219,1492209,0.0-6.0-213.0,"""","""","""","""","""","""","""","""","""","""","""","""","2021-08-13 21:13:55",70.93.250.3,"Mozilla/5.0 (Windows NT 10.0; Win64; x64; rv:91.0) Gecko/20100101 Firefox/91.0",,Firefox,91.0,Windows,10.0,5f461dd6c139dd6b46c7596cbd57cd79
203,1,"""","""","""","""","""",sampler,220,1492210,0.0-6.0-214.0,"""","""","""","""","""","""","""","""","""","""","""","""","2021-08-13 21:13:55",70.93.250.3,"Mozilla/5.0 (Windows NT 10.0; Win64; x64; rv:91.0) Gecko/20100101 Firefox/91.0",,Firefox,91.0,Windows,10.0,5f461dd6c139dd6b46c7596cbd57cd79
203,1,"""","""","""","""","""",sampler,221,1492210,0.0-6.0-215.0,"""","""","""","""","""","""","""","""","""","""","""","""","2021-08-13 21:13:55",70.93.250.3,"Mozilla/5.0 (Windows NT 10.0; Win64; x64; rv:91.0) Gecko/20100101 Firefox/91.0",,Firefox,91.0,Windows,10.0,5f461dd6c139dd6b46c7596cbd57cd79
203,1,"""","""","""","""","""",sampler,222,1492210,0.0-6.0-216.0,"""","""","""","""","""","""","""","""","""","""","""","""","2021-08-13 21:13:55",70.93.250.3,"Mozilla/5.0 (Windows NT 10.0; Win64; x64; rv:91.0) Gecko/20100101 Firefox/91.0",,Firefox,91.0,Windows,10.0,5f461dd6c139dd6b46c7596cbd57cd79
203,1,"""","""","""","""","""",sampler,223,1492210,0.0-6.0-217.0,"""","""","""","""","""","""","""","""","""","""","""","""","2021-08-13 21:13:55",70.93.250.3,"Mozilla/5.0 (Windows NT 10.0; Win64; x64; rv:91.0) Gecko/20100101 Firefox/91.0",,Firefox,91.0,Windows,10.0,5f461dd6c139dd6b46c7596cbd57cd79
203,1,"""","""","""","""","""",sampler,224,1492210,0.0-6.0-218.0,"""","""","""","""","""","""","""","""","""","""","""","""","2021-08-13 21:13:55",70.93.250.3,"Mozilla/5.0 (Windows NT 10.0; Win64; x64; rv:91.0) Gecko/20100101 Firefox/91.0",,Firefox,91.0,Windows,10.0,5f461dd6c139dd6b46c7596cbd57cd79
203,1,"""","""","""","""","""",sampler,225,1492210,0.0-6.0-219.0,"""","""","""","""","""","""","""","""","""","""","""","""","2021-08-13 21:13:55",70.93.250.3,"Mozilla/5.0 (Windows NT 10.0; Win64; x64; rv:91.0) Gecko/20100101 Firefox/91.0",,Firefox,91.0,Windows,10.0,5f461dd6c139dd6b46c7596cbd57cd79
203,1,"""","""","""","""","""",sampler,226,1492211,0.0-6.0-220.0,"""","""","""","""","""","""","""","""","""","""","""","""","2021-08-13 21:13:55",70.93.250.3,"Mozilla/5.0 (Windows NT 10.0; Win64; x64; rv:91.0) Gecko/20100101 Firefox/91.0",,Firefox,91.0,Windows,10.0,5f461dd6c139dd6b46c7596cbd57cd79
203,1,"""","""","""","""","""",sampler,227,1492211,0.0-6.0-221.0,"""","""","""","""","""","""","""","""","""","""","""","""","2021-08-13 21:13:55",70.93.250.3,"Mozilla/5.0 (Windows NT 10.0; Win64; x64; rv:91.0) Gecko/20100101 Firefox/91.0",,Firefox,91.0,Windows,10.0,5f461dd6c139dd6b46c7596cbd57cd79
203,1,"""","""","""","""","""",sampler,228,1492211,0.0-6.0-222.0,"""","""","""","""","""","""","""","""","""","""","""","""","2021-08-13 21:13:55",70.93.250.3,"Mozilla/5.0 (Windows NT 10.0; Win64; x64; rv:91.0) Gecko/20100101 Firefox/91.0",,Firefox,91.0,Windows,10.0,5f461dd6c139dd6b46c7596cbd57cd79
203,1,"""","""","""","""","""",sampler,229,1492211,0.0-6.0-223.0,"""","""","""","""","""","""","""","""","""","""","""","""","2021-08-13 21:13:55",70.93.250.3,"Mozilla/5.0 (Windows NT 10.0; Win64; x64; rv:91.0) Gecko/20100101 Firefox/91.0",,Firefox,91.0,Windows,10.0,5f461dd6c139dd6b46c7596cbd57cd79
203,1,"""","""","""","""","""",sampler,230,1492211,0.0-6.0-224.0,"""","""","""","""","""","""","""","""","""","""","""","""","2021-08-13 21:13:55",70.93.250.3,"Mozilla/5.0 (Windows NT 10.0; Win64; x64; rv:91.0) Gecko/20100101 Firefox/91.0",,Firefox,91.0,Windows,10.0,5f461dd6c139dd6b46c7596cbd57cd79
203,1,"""","""","""","""","""",sampler,231,1492211,0.0-6.0-225.0,"""","""","""","""","""","""","""","""","""","""","""","""","2021-08-13 21:13:55",70.93.250.3,"Mozilla/5.0 (Windows NT 10.0; Win64; x64; rv:91.0) Gecko/20100101 Firefox/91.0",,Firefox,91.0,Windows,10.0,5f461dd6c139dd6b46c7596cbd57cd79
203,1,"""","""","""","""","""",sampler,232,1492211,0.0-6.0-226.0,"""","""","""","""","""","""","""","""","""","""","""","""","2021-08-13 21:13:55",70.93.250.3,"Mozilla/5.0 (Windows NT 10.0; Win64; x64; rv:91.0) Gecko/20100101 Firefox/91.0",,Firefox,91.0,Windows,10.0,5f461dd6c139dd6b46c7596cbd57cd79
203,1,"""","""","""","""","""",sampler,233,1492212,0.0-6.0-227.0,"""","""","""","""","""","""","""","""","""","""","""","""","2021-08-13 21:13:55",70.93.250.3,"Mozilla/5.0 (Windows NT 10.0; Win64; x64; rv:91.0) Gecko/20100101 Firefox/91.0",,Firefox,91.0,Windows,10.0,5f461dd6c139dd6b46c7596cbd57cd79
203,1,"""","""","""","""","""",sampler,234,1492212,0.0-6.0-228.0,"""","""","""","""","""","""","""","""","""","""","""","""","2021-08-13 21:13:55",70.93.250.3,"Mozilla/5.0 (Windows NT 10.0; Win64; x64; rv:91.0) Gecko/20100101 Firefox/91.0",,Firefox,91.0,Windows,10.0,5f461dd6c139dd6b46c7596cbd57cd79
203,1,"""","""","""","""","""",sampler,235,1492212,0.0-6.0-229.0,"""","""","""","""","""","""","""","""","""","""","""","""","2021-08-13 21:13:55",70.93.250.3,"Mozilla/5.0 (Windows NT 10.0; Win64; x64; rv:91.0) Gecko/20100101 Firefox/91.0",,Firefox,91.0,Windows,10.0,5f461dd6c139dd6b46c7596cbd57cd79
203,1,"""","""","""","""","""",sampler,236,1492212,0.0-6.0-230.0,"""","""","""","""","""","""","""","""","""","""","""","""","2021-08-13 21:13:55",70.93.250.3,"Mozilla/5.0 (Windows NT 10.0; Win64; x64; rv:91.0) Gecko/20100101 Firefox/91.0",,Firefox,91.0,Windows,10.0,5f461dd6c139dd6b46c7596cbd57cd79
203,1,"""","""","""","""","""",sampler,237,1492212,0.0-6.0-231.0,"""","""","""","""","""","""","""","""","""","""","""","""","2021-08-13 21:13:55",70.93.250.3,"Mozilla/5.0 (Windows NT 10.0; Win64; x64; rv:91.0) Gecko/20100101 Firefox/91.0",,Firefox,91.0,Windows,10.0,5f461dd6c139dd6b46c7596cbd57cd79
203,1,"""","""","""","""","""",sampler,238,1492213,0.0-6.0-232.0,"""","""","""","""","""","""","""","""","""","""","""","""","2021-08-13 21:13:55",70.93.250.3,"Mozilla/5.0 (Windows NT 10.0; Win64; x64; rv:91.0) Gecko/20100101 Firefox/91.0",,Firefox,91.0,Windows,10.0,5f461dd6c139dd6b46c7596cbd57cd79
203,1,"""","""","""","""","""",sampler,239,1492213,0.0-6.0-233.0,"""","""","""","""","""","""","""","""","""","""","""","""","2021-08-13 21:13:55",70.93.250.3,"Mozilla/5.0 (Windows NT 10.0; Win64; x64; rv:91.0) Gecko/20100101 Firefox/91.0",,Firefox,91.0,Windows,10.0,5f461dd6c139dd6b46c7596cbd57cd79
203,1,"""","""","""","""","""",sampler,240,1492213,0.0-6.0-234.0,"""","""","""","""","""","""","""","""","""","""","""","""","2021-08-13 21:13:55",70.93.250.3,"Mozilla/5.0 (Windows NT 10.0; Win64; x64; rv:91.0) Gecko/20100101 Firefox/91.0",,Firefox,91.0,Windows,10.0,5f461dd6c139dd6b46c7596cbd57cd79
203,1,"""","""","""","""","""",sampler,241,1492213,0.0-6.0-235.0,"""","""","""","""","""","""","""","""","""","""","""","""","2021-08-13 21:13:55",70.93.250.3,"Mozilla/5.0 (Windows NT 10.0; Win64; x64; rv:91.0) Gecko/20100101 Firefox/91.0",,Firefox,91.0,Windows,10.0,5f461dd6c139dd6b46c7596cbd57cd79
203,1,"""","""","""","""","""",sampler,242,1492213,0.0-6.0-236.0,"""","""","""","""","""","""","""","""","""","""","""","""","2021-08-13 21:13:55",70.93.250.3,"Mozilla/5.0 (Windows NT 10.0; Win64; x64; rv:91.0) Gecko/20100101 Firefox/91.0",,Firefox,91.0,Windows,10.0,5f461dd6c139dd6b46c7596cbd57cd79
203,1,"""","""","""","""","""",sampler,243,1492213,0.0-6.0-237.0,"""","""","""","""","""","""","""","""","""","""","""","""","2021-08-13 21:13:55",70.93.250.3,"Mozilla/5.0 (Windows NT 10.0; Win64; x64; rv:91.0) Gecko/20100101 Firefox/91.0",,Firefox,91.0,Windows,10.0,5f461dd6c139dd6b46c7596cbd57cd79
203,1,"""","""","""","""","""",sampler,244,1492213,0.0-6.0-238.0,"""","""","""","""","""","""","""","""","""","""","""","""","2021-08-13 21:13:55",70.93.250.3,"Mozilla/5.0 (Windows NT 10.0; Win64; x64; rv:91.0) Gecko/20100101 Firefox/91.0",,Firefox,91.0,Windows,10.0,5f461dd6c139dd6b46c7596cbd57cd79
203,1,"""","""","""","""","""",sampler,245,1492214,0.0-6.0-239.0,"""","""","""","""","""","""","""","""","""","""","""","""","2021-08-13 21:13:55",70.93.250.3,"Mozilla/5.0 (Windows NT 10.0; Win64; x64; rv:91.0) Gecko/20100101 Firefox/91.0",,Firefox,91.0,Windows,10.0,5f461dd6c139dd6b46c7596cbd57cd79
203,1,"""","""","""","""","""",sampler,246,1492214,0.0-6.0-240.0,"""","""","""","""","""","""","""","""","""","""","""","""","2021-08-13 21:13:55",70.93.250.3,"Mozilla/5.0 (Windows NT 10.0; Win64; x64; rv:91.0) Gecko/20100101 Firefox/91.0",,Firefox,91.0,Windows,10.0,5f461dd6c139dd6b46c7596cbd57cd79
203,1,"""","""","""","""","""",sampler,247,1492214,0.0-6.0-241.0,"""","""","""","""","""","""","""","""","""","""","""","""","2021-08-13 21:13:55",70.93.250.3,"Mozilla/5.0 (Windows NT 10.0; Win64; x64; rv:91.0) Gecko/20100101 Firefox/91.0",,Firefox,91.0,Windows,10.0,5f461dd6c139dd6b46c7596cbd57cd79
203,1,"""","""","""","""","""",sampler,248,1492214,0.0-6.0-242.0,"""","""","""","""","""","""","""","""","""","""","""","""","2021-08-13 21:13:55",70.93.250.3,"Mozilla/5.0 (Windows NT 10.0; Win64; x64; rv:91.0) Gecko/20100101 Firefox/91.0",,Firefox,91.0,Windows,10.0,5f461dd6c139dd6b46c7596cbd57cd79
203,1,"""","""","""","""","""",sampler,249,1492214,0.0-6.0-243.0,"""","""","""","""","""","""","""","""","""","""","""","""","2021-08-13 21:13:55",70.93.250.3,"Mozilla/5.0 (Windows NT 10.0; Win64; x64; rv:91.0) Gecko/20100101 Firefox/91.0",,Firefox,91.0,Windows,10.0,5f461dd6c139dd6b46c7596cbd57cd79
203,1,"""","""","""","""","""",sampler,250,1492214,0.0-6.0-244.0,"""","""","""","""","""","""","""","""","""","""","""","""","2021-08-13 21:13:55",70.93.250.3,"Mozilla/5.0 (Windows NT 10.0; Win64; x64; rv:91.0) Gecko/20100101 Firefox/91.0",,Firefox,91.0,Windows,10.0,5f461dd6c139dd6b46c7596cbd57cd79
203,1,"""","""","""","""","""",sampler,251,1492215,0.0-6.0-245.0,"""","""","""","""","""","""","""","""","""","""","""","""","2021-08-13 21:13:55",70.93.250.3,"Mozilla/5.0 (Windows NT 10.0; Win64; x64; rv:91.0) Gecko/20100101 Firefox/91.0",,Firefox,91.0,Windows,10.0,5f461dd6c139dd6b46c7596cbd57cd79
203,1,"""","""","""","""","""",sampler,252,1492215,0.0-6.0-246.0,"""","""","""","""","""","""","""","""","""","""","""","""","2021-08-13 21:13:55",70.93.250.3,"Mozilla/5.0 (Windows NT 10.0; Win64; x64; rv:91.0) Gecko/20100101 Firefox/91.0",,Firefox,91.0,Windows,10.0,5f461dd6c139dd6b46c7596cbd57cd79
203,1,"""","""","""","""","""",sampler,253,1492215,0.0-6.0-247.0,"""","""","""","""","""","""","""","""","""","""","""","""","2021-08-13 21:13:55",70.93.250.3,"Mozilla/5.0 (Windows NT 10.0; Win64; x64; rv:91.0) Gecko/20100101 Firefox/91.0",,Firefox,91.0,Windows,10.0,5f461dd6c139dd6b46c7596cbd57cd79
203,1,"""","""","""","""","""",sampler,254,1492215,0.0-6.0-248.0,"""","""","""","""","""","""","""","""","""","""","""","""","2021-08-13 21:13:55",70.93.250.3,"Mozilla/5.0 (Windows NT 10.0; Win64; x64; rv:91.0) Gecko/20100101 Firefox/91.0",,Firefox,91.0,Windows,10.0,5f461dd6c139dd6b46c7596cbd57cd79
203,1,"""","""","""","""","""",sampler,255,1492215,0.0-6.0-249.0,"""","""","""","""","""","""","""","""","""","""","""","""","2021-08-13 21:13:55",70.93.250.3,"Mozilla/5.0 (Windows NT 10.0; Win64; x64; rv:91.0) Gecko/20100101 Firefox/91.0",,Firefox,91.0,Windows,10.0,5f461dd6c139dd6b46c7596cbd57cd79
203,1,"""","""","""","""","""",sampler,256,1492215,0.0-6.0-250.0,"""","""","""","""","""","""","""","""","""","""","""","""","2021-08-13 21:13:55",70.93.250.3,"Mozilla/5.0 (Windows NT 10.0; Win64; x64; rv:91.0) Gecko/20100101 Firefox/91.0",,Firefox,91.0,Windows,10.0,5f461dd6c139dd6b46c7596cbd57cd79
203,1,"""","""","""","""","""",sampler,257,1492217,0.0-6.0-251.0,"""","""","""","""","""","""","""","""","""","""","""","""","2021-08-13 21:13:55",70.93.250.3,"Mozilla/5.0 (Windows NT 10.0; Win64; x64; rv:91.0) Gecko/20100101 Firefox/91.0",,Firefox,91.0,Windows,10.0,5f461dd6c139dd6b46c7596cbd57cd79
203,1,"""","""","""","""","""",sampler,258,1492217,0.0-6.0-252.0,"""","""","""","""","""","""","""","""","""","""","""","""","2021-08-13 21:13:55",70.93.250.3,"Mozilla/5.0 (Windows NT 10.0; Win64; x64; rv:91.0) Gecko/20100101 Firefox/91.0",,Firefox,91.0,Windows,10.0,5f461dd6c139dd6b46c7596cbd57cd79
203,1,"""","""","""","""","""",sampler,259,1492217,0.0-6.0-253.0,"""","""","""","""","""","""","""","""","""","""","""","""","2021-08-13 21:13:55",70.93.250.3,"Mozilla/5.0 (Windows NT 10.0; Win64; x64; rv:91.0) Gecko/20100101 Firefox/91.0",,Firefox,91.0,Windows,10.0,5f461dd6c139dd6b46c7596cbd57cd79
203,1,"""","""","""","""","""",sampler,260,1492217,0.0-6.0-254.0,"""","""","""","""","""","""","""","""","""","""","""","""","2021-08-13 21:13:55",70.93.250.3,"Mozilla/5.0 (Windows NT 10.0; Win64; x64; rv:91.0) Gecko/20100101 Firefox/91.0",,Firefox,91.0,Windows,10.0,5f461dd6c139dd6b46c7596cbd57cd79
203,1,"""","""","""","""","""",sampler,261,1492217,0.0-6.0-255.0,"""","""","""","""","""","""","""","""","""","""","""","""","2021-08-13 21:13:55",70.93.250.3,"Mozilla/5.0 (Windows NT 10.0; Win64; x64; rv:91.0) Gecko/20100101 Firefox/91.0",,Firefox,91.0,Windows,10.0,5f461dd6c139dd6b46c7596cbd57cd79
203,1,"""","""","""","""","""",sampler,262,1492217,0.0-6.0-256.0,"""","""","""","""","""","""","""","""","""","""","""","""","2021-08-13 21:13:55",70.93.250.3,"Mozilla/5.0 (Windows NT 10.0; Win64; x64; rv:91.0) Gecko/20100101 Firefox/91.0",,Firefox,91.0,Windows,10.0,5f461dd6c139dd6b46c7596cbd57cd79
203,1,"""","""","""","""","""",sampler,263,1492218,0.0-6.0-257.0,"""","""","""","""","""","""","""","""","""","""","""","""","2021-08-13 21:13:55",70.93.250.3,"Mozilla/5.0 (Windows NT 10.0; Win64; x64; rv:91.0) Gecko/20100101 Firefox/91.0",,Firefox,91.0,Windows,10.0,5f461dd6c139dd6b46c7596cbd57cd79
203,1,"""","""","""","""","""",sampler,264,1492218,0.0-6.0-258.0,"""","""","""","""","""","""","""","""","""","""","""","""","2021-08-13 21:13:55",70.93.250.3,"Mozilla/5.0 (Windows NT 10.0; Win64; x64; rv:91.0) Gecko/20100101 Firefox/91.0",,Firefox,91.0,Windows,10.0,5f461dd6c139dd6b46c7596cbd57cd79
203,1,"""","""","""","""","""",sampler,265,1492218,0.0-6.0-259.0,"""","""","""","""","""","""","""","""","""","""","""","""","2021-08-13 21:13:55",70.93.250.3,"Mozilla/5.0 (Windows NT 10.0; Win64; x64; rv:91.0) Gecko/20100101 Firefox/91.0",,Firefox,91.0,Windows,10.0,5f461dd6c139dd6b46c7596cbd57cd79
203,1,"""","""","""","""","""",sampler,266,1492218,0.0-6.0-260.0,"""","""","""","""","""","""","""","""","""","""","""","""","2021-08-13 21:13:55",70.93.250.3,"Mozilla/5.0 (Windows NT 10.0; Win64; x64; rv:91.0) Gecko/20100101 Firefox/91.0",,Firefox,91.0,Windows,10.0,5f461dd6c139dd6b46c7596cbd57cd79
203,1,"""","""","""","""","""",sampler,267,1492218,0.0-6.0-261.0,"""","""","""","""","""","""","""","""","""","""","""","""","2021-08-13 21:13:55",70.93.250.3,"Mozilla/5.0 (Windows NT 10.0; Win64; x64; rv:91.0) Gecko/20100101 Firefox/91.0",,Firefox,91.0,Windows,10.0,5f461dd6c139dd6b46c7596cbd57cd79
203,1,"""","""","""","""","""",sampler,268,1492218,0.0-6.0-262.0,"""","""","""","""","""","""","""","""","""","""","""","""","2021-08-13 21:13:55",70.93.250.3,"Mozilla/5.0 (Windows NT 10.0; Win64; x64; rv:91.0) Gecko/20100101 Firefox/91.0",,Firefox,91.0,Windows,10.0,5f461dd6c139dd6b46c7596cbd57cd79
203,1,"""","""","""","""","""",sampler,269,1492218,0.0-6.0-263.0,"""","""","""","""","""","""","""","""","""","""","""","""","2021-08-13 21:13:55",70.93.250.3,"Mozilla/5.0 (Windows NT 10.0; Win64; x64; rv:91.0) Gecko/20100101 Firefox/91.0",,Firefox,91.0,Windows,10.0,5f461dd6c139dd6b46c7596cbd57cd79
203,1,"""","""","""","""","""",sampler,270,1492219,0.0-6.0-264.0,"""","""","""","""","""","""","""","""","""","""","""","""","2021-08-13 21:13:55",70.93.250.3,"Mozilla/5.0 (Windows NT 10.0; Win64; x64; rv:91.0) Gecko/20100101 Firefox/91.0",,Firefox,91.0,Windows,10.0,5f461dd6c139dd6b46c7596cbd57cd79
203,1,"""","""","""","""","""",sampler,271,1492219,0.0-6.0-265.0,"""","""","""","""","""","""","""","""","""","""","""","""","2021-08-13 21:13:55",70.93.250.3,"Mozilla/5.0 (Windows NT 10.0; Win64; x64; rv:91.0) Gecko/20100101 Firefox/91.0",,Firefox,91.0,Windows,10.0,5f461dd6c139dd6b46c7596cbd57cd79
203,1,"""","""","""","""","""",sampler,272,1492220,0.0-6.0-266.0,"""","""","""","""","""","""","""","""","""","""","""","""","2021-08-13 21:13:55",70.93.250.3,"Mozilla/5.0 (Windows NT 10.0; Win64; x64; rv:91.0) Gecko/20100101 Firefox/91.0",,Firefox,91.0,Windows,10.0,5f461dd6c139dd6b46c7596cbd57cd79
203,1,"""","""","""","""","""",sampler,273,1492220,0.0-6.0-267.0,"""","""","""","""","""","""","""","""","""","""","""","""","2021-08-13 21:13:55",70.93.250.3,"Mozilla/5.0 (Windows NT 10.0; Win64; x64; rv:91.0) Gecko/20100101 Firefox/91.0",,Firefox,91.0,Windows,10.0,5f461dd6c139dd6b46c7596cbd57cd79
203,1,"""","""","""","""","""",sampler,274,1492220,0.0-6.0-268.0,"""","""","""","""","""","""","""","""","""","""","""","""","2021-08-13 21:13:55",70.93.250.3,"Mozilla/5.0 (Windows NT 10.0; Win64; x64; rv:91.0) Gecko/20100101 Firefox/91.0",,Firefox,91.0,Windows,10.0,5f461dd6c139dd6b46c7596cbd57cd79
203,1,"""","""","""","""","""",sampler,275,1492220,0.0-6.0-269.0,"""","""","""","""","""","""","""","""","""","""","""","""","2021-08-13 21:13:55",70.93.250.3,"Mozilla/5.0 (Windows NT 10.0; Win64; x64; rv:91.0) Gecko/20100101 Firefox/91.0",,Firefox,91.0,Windows,10.0,5f461dd6c139dd6b46c7596cbd57cd79
203,1,"""","""","""","""","""",sampler,276,1492220,0.0-6.0-270.0,"""","""","""","""","""","""","""","""","""","""","""","""","2021-08-13 21:13:55",70.93.250.3,"Mozilla/5.0 (Windows NT 10.0; Win64; x64; rv:91.0) Gecko/20100101 Firefox/91.0",,Firefox,91.0,Windows,10.0,5f461dd6c139dd6b46c7596cbd57cd79
203,1,"""","""","""","""","""",sampler,277,1492220,0.0-6.0-271.0,"""","""","""","""","""","""","""","""","""","""","""","""","2021-08-13 21:13:55",70.93.250.3,"Mozilla/5.0 (Windows NT 10.0; Win64; x64; rv:91.0) Gecko/20100101 Firefox/91.0",,Firefox,91.0,Windows,10.0,5f461dd6c139dd6b46c7596cbd57cd79
203,1,"""","""","""","""","""",sampler,278,1492220,0.0-6.0-272.0,"""","""","""","""","""","""","""","""","""","""","""","""","2021-08-13 21:13:55",70.93.250.3,"Mozilla/5.0 (Windows NT 10.0; Win64; x64; rv:91.0) Gecko/20100101 Firefox/91.0",,Firefox,91.0,Windows,10.0,5f461dd6c139dd6b46c7596cbd57cd79
203,1,"""","""","""","""","""",sampler,279,1492220,0.0-6.0-273.0,"""","""","""","""","""","""","""","""","""","""","""","""","2021-08-13 21:13:55",70.93.250.3,"Mozilla/5.0 (Windows NT 10.0; Win64; x64; rv:91.0) Gecko/20100101 Firefox/91.0",,Firefox,91.0,Windows,10.0,5f461dd6c139dd6b46c7596cbd57cd79
203,1,"""","""","""","""","""",sampler,280,1492220,0.0-6.0-274.0,"""","""","""","""","""","""","""","""","""","""","""","""","2021-08-13 21:13:55",70.93.250.3,"Mozilla/5.0 (Windows NT 10.0; Win64; x64; rv:91.0) Gecko/20100101 Firefox/91.0",,Firefox,91.0,Windows,10.0,5f461dd6c139dd6b46c7596cbd57cd79
203,1,"""","""","""","""","""",sampler,281,1492220,0.0-6.0-275.0,"""","""","""","""","""","""","""","""","""","""","""","""","2021-08-13 21:13:55",70.93.250.3,"Mozilla/5.0 (Windows NT 10.0; Win64; x64; rv:91.0) Gecko/20100101 Firefox/91.0",,Firefox,91.0,Windows,10.0,5f461dd6c139dd6b46c7596cbd57cd79
203,1,"""","""","""","""","""",sampler,282,1492220,0.0-6.0-276.0,"""","""","""","""","""","""","""","""","""","""","""","""","2021-08-13 21:13:55",70.93.250.3,"Mozilla/5.0 (Windows NT 10.0; Win64; x64; rv:91.0) Gecko/20100101 Firefox/91.0",,Firefox,91.0,Windows,10.0,5f461dd6c139dd6b46c7596cbd57cd79
203,1,"""","""","""","""","""",sampler,283,1492221,0.0-6.0-277.0,"""","""","""","""","""","""","""","""","""","""","""","""","2021-08-13 21:13:55",70.93.250.3,"Mozilla/5.0 (Windows NT 10.0; Win64; x64; rv:91.0) Gecko/20100101 Firefox/91.0",,Firefox,91.0,Windows,10.0,5f461dd6c139dd6b46c7596cbd57cd79
203,1,"""","""","""","""","""",sampler,284,1492221,0.0-6.0-278.0,"""","""","""","""","""","""","""","""","""","""","""","""","2021-08-13 21:13:55",70.93.250.3,"Mozilla/5.0 (Windows NT 10.0; Win64; x64; rv:91.0) Gecko/20100101 Firefox/91.0",,Firefox,91.0,Windows,10.0,5f461dd6c139dd6b46c7596cbd57cd79
203,1,"""","""","""","""","""",sampler,285,1492221,0.0-6.0-279.0,"""","""","""","""","""","""","""","""","""","""","""","""","2021-08-13 21:13:55",70.93.250.3,"Mozilla/5.0 (Windows NT 10.0; Win64; x64; rv:91.0) Gecko/20100101 Firefox/91.0",,Firefox,91.0,Windows,10.0,5f461dd6c139dd6b46c7596cbd57cd79
203,1,"""","""","""","""","""",sampler,286,1492221,0.0-6.0-280.0,"""","""","""","""","""","""","""","""","""","""","""","""","2021-08-13 21:13:55",70.93.250.3,"Mozilla/5.0 (Windows NT 10.0; Win64; x64; rv:91.0) Gecko/20100101 Firefox/91.0",,Firefox,91.0,Windows,10.0,5f461dd6c139dd6b46c7596cbd57cd79
203,1,"""","""","""","""","""",sampler,287,1492221,0.0-6.0-281.0,"""","""","""","""","""","""","""","""","""","""","""","""","2021-08-13 21:13:55",70.93.250.3,"Mozilla/5.0 (Windows NT 10.0; Win64; x64; rv:91.0) Gecko/20100101 Firefox/91.0",,Firefox,91.0,Windows,10.0,5f461dd6c139dd6b46c7596cbd57cd79
203,1,"""","""","""","""","""",sampler,288,1492221,0.0-6.0-282.0,"""","""","""","""","""","""","""","""","""","""","""","""","2021-08-13 21:13:55",70.93.250.3,"Mozilla/5.0 (Windows NT 10.0; Win64; x64; rv:91.0) Gecko/20100101 Firefox/91.0",,Firefox,91.0,Windows,10.0,5f461dd6c139dd6b46c7596cbd57cd79
203,1,"""","""","""","""","""",sampler,289,1492221,0.0-6.0-283.0,"""","""","""","""","""","""","""","""","""","""","""","""","2021-08-13 21:13:55",70.93.250.3,"Mozilla/5.0 (Windows NT 10.0; Win64; x64; rv:91.0) Gecko/20100101 Firefox/91.0",,Firefox,91.0,Windows,10.0,5f461dd6c139dd6b46c7596cbd57cd79
203,1,"""","""","""","""","""",sampler,290,1492222,0.0-6.0-284.0,"""","""","""","""","""","""","""","""","""","""","""","""","2021-08-13 21:13:55",70.93.250.3,"Mozilla/5.0 (Windows NT 10.0; Win64; x64; rv:91.0) Gecko/20100101 Firefox/91.0",,Firefox,91.0,Windows,10.0,5f461dd6c139dd6b46c7596cbd57cd79
203,1,"""","""","""","""","""",sampler,291,1492223,0.0-6.0-285.0,"""","""","""","""","""","""","""","""","""","""","""","""","2021-08-13 21:13:55",70.93.250.3,"Mozilla/5.0 (Windows NT 10.0; Win64; x64; rv:91.0) Gecko/20100101 Firefox/91.0",,Firefox,91.0,Windows,10.0,5f461dd6c139dd6b46c7596cbd57cd79
203,1,"""","""","""","""","""",sampler,292,1492223,0.0-6.0-286.0,"""","""","""","""","""","""","""","""","""","""","""","""","2021-08-13 21:13:55",70.93.250.3,"Mozilla/5.0 (Windows NT 10.0; Win64; x64; rv:91.0) Gecko/20100101 Firefox/91.0",,Firefox,91.0,Windows,10.0,5f461dd6c139dd6b46c7596cbd57cd79
203,1,"""","""","""","""","""",sampler,293,1492223,0.0-6.0-287.0,"""","""","""","""","""","""","""","""","""","""","""","""","2021-08-13 21:13:55",70.93.250.3,"Mozilla/5.0 (Windows NT 10.0; Win64; x64; rv:91.0) Gecko/20100101 Firefox/91.0",,Firefox,91.0,Windows,10.0,5f461dd6c139dd6b46c7596cbd57cd79
203,1,"""","""","""","""","""",sampler,294,1492223,0.0-6.0-288.0,"""","""","""","""","""","""","""","""","""","""","""","""","2021-08-13 21:13:55",70.93.250.3,"Mozilla/5.0 (Windows NT 10.0; Win64; x64; rv:91.0) Gecko/20100101 Firefox/91.0",,Firefox,91.0,Windows,10.0,5f461dd6c139dd6b46c7596cbd57cd79
203,1,"""","""","""","""","""",sampler,295,1492223,0.0-6.0-289.0,"""","""","""","""","""","""","""","""","""","""","""","""","2021-08-13 21:13:55",70.93.250.3,"Mozilla/5.0 (Windows NT 10.0; Win64; x64; rv:91.0) Gecko/20100101 Firefox/91.0",,Firefox,91.0,Windows,10.0,5f461dd6c139dd6b46c7596cbd57cd79
203,1,"""","""","""","""","""",sampler,296,1492223,0.0-6.0-290.0,"""","""","""","""","""","""","""","""","""","""","""","""","2021-08-13 21:13:55",70.93.250.3,"Mozilla/5.0 (Windows NT 10.0; Win64; x64; rv:91.0) Gecko/20100101 Firefox/91.0",,Firefox,91.0,Windows,10.0,5f461dd6c139dd6b46c7596cbd57cd79
203,1,"""","""","""","""","""",sampler,297,1492224,0.0-6.0-291.0,"""","""","""","""","""","""","""","""","""","""","""","""","2021-08-13 21:13:55",70.93.250.3,"Mozilla/5.0 (Windows NT 10.0; Win64; x64; rv:91.0) Gecko/20100101 Firefox/91.0",,Firefox,91.0,Windows,10.0,5f461dd6c139dd6b46c7596cbd57cd79
203,1,"""","""","""","""","""",sampler,298,1492224,0.0-6.0-292.0,"""","""","""","""","""","""","""","""","""","""","""","""","2021-08-13 21:13:55",70.93.250.3,"Mozilla/5.0 (Windows NT 10.0; Win64; x64; rv:91.0) Gecko/20100101 Firefox/91.0",,Firefox,91.0,Windows,10.0,5f461dd6c139dd6b46c7596cbd57cd79
203,1,"""","""","""","""","""",sampler,299,1492224,0.0-6.0-293.0,"""","""","""","""","""","""","""","""","""","""","""","""","2021-08-13 21:13:55",70.93.250.3,"Mozilla/5.0 (Windows NT 10.0; Win64; x64; rv:91.0) Gecko/20100101 Firefox/91.0",,Firefox,91.0,Windows,10.0,5f461dd6c139dd6b46c7596cbd57cd79
203,1,"""","""","""","""","""",sampler,300,1492224,0.0-6.0-294.0,"""","""","""","""","""","""","""","""","""","""","""","""","2021-08-13 21:13:55",70.93.250.3,"Mozilla/5.0 (Windows NT 10.0; Win64; x64; rv:91.0) Gecko/20100101 Firefox/91.0",,Firefox,91.0,Windows,10.0,5f461dd6c139dd6b46c7596cbd57cd79
203,1,"""","""","""","""","""",sampler,301,1492224,0.0-6.0-295.0,"""","""","""","""","""","""","""","""","""","""","""","""","2021-08-13 21:13:55",70.93.250.3,"Mozilla/5.0 (Windows NT 10.0; Win64; x64; rv:91.0) Gecko/20100101 Firefox/91.0",,Firefox,91.0,Windows,10.0,5f461dd6c139dd6b46c7596cbd57cd79
203,1,"""","""","""","""","""",sampler,302,1492224,0.0-6.0-296.0,"""","""","""","""","""","""","""","""","""","""","""","""","2021-08-13 21:13:55",70.93.250.3,"Mozilla/5.0 (Windows NT 10.0; Win64; x64; rv:91.0) Gecko/20100101 Firefox/91.0",,Firefox,91.0,Windows,10.0,5f461dd6c139dd6b46c7596cbd57cd79
203,1,"""","""","""","""","""",sampler,303,1492224,0.0-6.0-297.0,"""","""","""","""","""","""","""","""","""","""","""","""","2021-08-13 21:13:55",70.93.250.3,"Mozilla/5.0 (Windows NT 10.0; Win64; x64; rv:91.0) Gecko/20100101 Firefox/91.0",,Firefox,91.0,Windows,10.0,5f461dd6c139dd6b46c7596cbd57cd79
203,1,"""","""","""","""","""",sampler,304,1492224,0.0-6.0-298.0,"""","""","""","""","""","""","""","""","""","""","""","""","2021-08-13 21:13:55",70.93.250.3,"Mozilla/5.0 (Windows NT 10.0; Win64; x64; rv:91.0) Gecko/20100101 Firefox/91.0",,Firefox,91.0,Windows,10.0,5f461dd6c139dd6b46c7596cbd57cd79
203,1,"""","""","""","""","""",sampler,305,1492224,0.0-6.0-299.0,"""","""","""","""","""","""","""","""","""","""","""","""","2021-08-13 21:13:55",70.93.250.3,"Mozilla/5.0 (Windows NT 10.0; Win64; x64; rv:91.0) Gecko/20100101 Firefox/91.0",,Firefox,91.0,Windows,10.0,5f461dd6c139dd6b46c7596cbd57cd79
203,1,"""","""","""","""","""",sampler,306,1492224,0.0-6.0-300.0,"""","""","""","""","""","""","""","""","""","""","""","""","2021-08-13 21:13:55",70.93.250.3,"Mozilla/5.0 (Windows NT 10.0; Win64; x64; rv:91.0) Gecko/20100101 Firefox/91.0",,Firefox,91.0,Windows,10.0,5f461dd6c139dd6b46c7596cbd57cd79
203,1,"""","""","""","""","""",sampler,307,1492224,0.0-6.0-301.0,"""","""","""","""","""","""","""","""","""","""","""","""","2021-08-13 21:13:55",70.93.250.3,"Mozilla/5.0 (Windows NT 10.0; Win64; x64; rv:91.0) Gecko/20100101 Firefox/91.0",,Firefox,91.0,Windows,10.0,5f461dd6c139dd6b46c7596cbd57cd79
203,1,"""","""","""","""","""",sampler,308,1492224,0.0-6.0-302.0,"""","""","""","""","""","""","""","""","""","""","""","""","2021-08-13 21:13:55",70.93.250.3,"Mozilla/5.0 (Windows NT 10.0; Win64; x64; rv:91.0) Gecko/20100101 Firefox/91.0",,Firefox,91.0,Windows,10.0,5f461dd6c139dd6b46c7596cbd57cd79
203,1,"""","""","""","""","""",sampler,309,1492224,0.0-6.0-303.0,"""","""","""","""","""","""","""","""","""","""","""","""","2021-08-13 21:13:55",70.93.250.3,"Mozilla/5.0 (Windows NT 10.0; Win64; x64; rv:91.0) Gecko/20100101 Firefox/91.0",,Firefox,91.0,Windows,10.0,5f461dd6c139dd6b46c7596cbd57cd79
203,1,"""","""","""","""","""",sampler,310,1492225,0.0-6.0-304.0,"""","""","""","""","""","""","""","""","""","""","""","""","2021-08-13 21:13:55",70.93.250.3,"Mozilla/5.0 (Windows NT 10.0; Win64; x64; rv:91.0) Gecko/20100101 Firefox/91.0",,Firefox,91.0,Windows,10.0,5f461dd6c139dd6b46c7596cbd57cd79
203,1,"""","""","""","""","""",sampler,311,1492226,0.0-6.0-305.0,"""","""","""","""","""","""","""","""","""","""","""","""","2021-08-13 21:13:55",70.93.250.3,"Mozilla/5.0 (Windows NT 10.0; Win64; x64; rv:91.0) Gecko/20100101 Firefox/91.0",,Firefox,91.0,Windows,10.0,5f461dd6c139dd6b46c7596cbd57cd79
203,1,"""","""","""","""","""",sampler,312,1492226,0.0-6.0-306.0,"""","""","""","""","""","""","""","""","""","""","""","""","2021-08-13 21:13:55",70.93.250.3,"Mozilla/5.0 (Windows NT 10.0; Win64; x64; rv:91.0) Gecko/20100101 Firefox/91.0",,Firefox,91.0,Windows,10.0,5f461dd6c139dd6b46c7596cbd57cd79
203,1,"""","""","""","""","""",sampler,313,1492226,0.0-6.0-307.0,"""","""","""","""","""","""","""","""","""","""","""","""","2021-08-13 21:13:55",70.93.250.3,"Mozilla/5.0 (Windows NT 10.0; Win64; x64; rv:91.0) Gecko/20100101 Firefox/91.0",,Firefox,91.0,Windows,10.0,5f461dd6c139dd6b46c7596cbd57cd79
203,1,"""","""","""","""","""",sampler,314,1492226,0.0-6.0-308.0,"""","""","""","""","""","""","""","""","""","""","""","""","2021-08-13 21:13:55",70.93.250.3,"Mozilla/5.0 (Windows NT 10.0; Win64; x64; rv:91.0) Gecko/20100101 Firefox/91.0",,Firefox,91.0,Windows,10.0,5f461dd6c139dd6b46c7596cbd57cd79
203,1,"""","""","""","""","""",sampler,315,1492226,0.0-6.0-309.0,"""","""","""","""","""","""","""","""","""","""","""","""","2021-08-13 21:13:55",70.93.250.3,"Mozilla/5.0 (Windows NT 10.0; Win64; x64; rv:91.0) Gecko/20100101 Firefox/91.0",,Firefox,91.0,Windows,10.0,5f461dd6c139dd6b46c7596cbd57cd79
203,1,"""","""","""","""","""",sampler,316,1492226,0.0-6.0-310.0,"""","""","""","""","""","""","""","""","""","""","""","""","2021-08-13 21:13:55",70.93.250.3,"Mozilla/5.0 (Windows NT 10.0; Win64; x64; rv:91.0) Gecko/20100101 Firefox/91.0",,Firefox,91.0,Windows,10.0,5f461dd6c139dd6b46c7596cbd57cd79
203,1,"""","""","""","""","""",sampler,317,1492226,0.0-6.0-311.0,"""","""","""","""","""","""","""","""","""","""","""","""","2021-08-13 21:13:55",70.93.250.3,"Mozilla/5.0 (Windows NT 10.0; Win64; x64; rv:91.0) Gecko/20100101 Firefox/91.0",,Firefox,91.0,Windows,10.0,5f461dd6c139dd6b46c7596cbd57cd79
203,1,"""","""","""","""","""",sampler,318,1492226,0.0-6.0-312.0,"""","""","""","""","""","""","""","""","""","""","""","""","2021-08-13 21:13:55",70.93.250.3,"Mozilla/5.0 (Windows NT 10.0; Win64; x64; rv:91.0) Gecko/20100101 Firefox/91.0",,Firefox,91.0,Windows,10.0,5f461dd6c139dd6b46c7596cbd57cd79
203,1,"""","""","""","""","""",sampler,319,1492227,0.0-6.0-313.0,"""","""","""","""","""","""","""","""","""","""","""","""","2021-08-13 21:13:55",70.93.250.3,"Mozilla/5.0 (Windows NT 10.0; Win64; x64; rv:91.0) Gecko/20100101 Firefox/91.0",,Firefox,91.0,Windows,10.0,5f461dd6c139dd6b46c7596cbd57cd79
203,1,"""","""","""","""","""",sampler,320,1492227,0.0-6.0-314.0,"""","""","""","""","""","""","""","""","""","""","""","""","2021-08-13 21:13:55",70.93.250.3,"Mozilla/5.0 (Windows NT 10.0; Win64; x64; rv:91.0) Gecko/20100101 Firefox/91.0",,Firefox,91.0,Windows,10.0,5f461dd6c139dd6b46c7596cbd57cd79
203,1,"""","""","""","""","""",sampler,321,1492227,0.0-6.0-315.0,"""","""","""","""","""","""","""","""","""","""","""","""","2021-08-13 21:13:55",70.93.250.3,"Mozilla/5.0 (Windows NT 10.0; Win64; x64; rv:91.0) Gecko/20100101 Firefox/91.0",,Firefox,91.0,Windows,10.0,5f461dd6c139dd6b46c7596cbd57cd79
203,1,"""","""","""","""","""",sampler,322,1492227,0.0-6.0-316.0,"""","""","""","""","""","""","""","""","""","""","""","""","2021-08-13 21:13:55",70.93.250.3,"Mozilla/5.0 (Windows NT 10.0; Win64; x64; rv:91.0) Gecko/20100101 Firefox/91.0",,Firefox,91.0,Windows,10.0,5f461dd6c139dd6b46c7596cbd57cd79
203,1,"""","""","""","""","""",sampler,323,1492227,0.0-6.0-317.0,"""","""","""","""","""","""","""","""","""","""","""","""","2021-08-13 21:13:55",70.93.250.3,"Mozilla/5.0 (Windows NT 10.0; Win64; x64; rv:91.0) Gecko/20100101 Firefox/91.0",,Firefox,91.0,Windows,10.0,5f461dd6c139dd6b46c7596cbd57cd79
203,1,"""","""","""","""","""",sampler,324,1492227,0.0-6.0-318.0,"""","""","""","""","""","""","""","""","""","""","""","""","2021-08-13 21:13:55",70.93.250.3,"Mozilla/5.0 (Windows NT 10.0; Win64; x64; rv:91.0) Gecko/20100101 Firefox/91.0",,Firefox,91.0,Windows,10.0,5f461dd6c139dd6b46c7596cbd57cd79
203,1,"""","""","""","""","""",sampler,325,1492228,0.0-6.0-319.0,"""","""","""","""","""","""","""","""","""","""","""","""","2021-08-13 21:13:55",70.93.250.3,"Mozilla/5.0 (Windows NT 10.0; Win64; x64; rv:91.0) Gecko/20100101 Firefox/91.0",,Firefox,91.0,Windows,10.0,5f461dd6c139dd6b46c7596cbd57cd79
203,1,"""","""","""","""","""",sampler,326,1492228,0.0-6.0-320.0,"""","""","""","""","""","""","""","""","""","""","""","""","2021-08-13 21:13:55",70.93.250.3,"Mozilla/5.0 (Windows NT 10.0; Win64; x64; rv:91.0) Gecko/20100101 Firefox/91.0",,Firefox,91.0,Windows,10.0,5f461dd6c139dd6b46c7596cbd57cd79
203,1,"""","""","""","""","""",sampler,327,1492228,0.0-6.0-321.0,"""","""","""","""","""","""","""","""","""","""","""","""","2021-08-13 21:13:55",70.93.250.3,"Mozilla/5.0 (Windows NT 10.0; Win64; x64; rv:91.0) Gecko/20100101 Firefox/91.0",,Firefox,91.0,Windows,10.0,5f461dd6c139dd6b46c7596cbd57cd79
203,1,"""","""","""","""","""",sampler,328,1492228,0.0-6.0-322.0,"""","""","""","""","""","""","""","""","""","""","""","""","2021-08-13 21:13:55",70.93.250.3,"Mozilla/5.0 (Windows NT 10.0; Win64; x64; rv:91.0) Gecko/20100101 Firefox/91.0",,Firefox,91.0,Windows,10.0,5f461dd6c139dd6b46c7596cbd57cd79
203,1,"""","""","""","""","""",sampler,329,1492228,0.0-6.0-323.0,"""","""","""","""","""","""","""","""","""","""","""","""","2021-08-13 21:13:55",70.93.250.3,"Mozilla/5.0 (Windows NT 10.0; Win64; x64; rv:91.0) Gecko/20100101 Firefox/91.0",,Firefox,91.0,Windows,10.0,5f461dd6c139dd6b46c7596cbd57cd79
