run_id,condition,success,timeout,failed_images,failed_audio,failed_video,trial_type,trial_index,time_elapsed,internal_node_id,rt,stimulus,key_press,responses,view_history,correct,image_click,points,sd,points2,total_earn,button_pressed,recorded_at,ip,user_agent,device,browser,browser_version,platform,platform_version,source_code_version
218,1,true,false,"""","""","""",preload,0,612,0.0-0.0,"""","""","""","""","""","""","""","""","""","""","""","""","2021-08-17 18:03:37",89.152.99.100,"Mozilla/5.0 (Windows NT 10.0; Win64; x64) AppleWebKit/537.36 (KHTML, like Gecko) Chrome/92.0.4515.131 Safari/537.36",WebKit,Chrome,92.0.4515.131,Windows,10.0,5f461dd6c139dd6b46c7596cbd57cd79
218,1,"""","""","""","""","""",html-keyboard-response,1,2690,0.0-1.0,2072,"<font size=15>Welcome to our experiment!</font><br><br><br><i> Press <b>space bar</b> to begin.</i>",32,"""","""","""","""","""","""","""","""","""","2021-08-17 18:03:37",89.152.99.100,"Mozilla/5.0 (Windows NT 10.0; Win64; x64) AppleWebKit/537.36 (KHTML, like Gecko) Chrome/92.0.4515.131 Safari/537.36",WebKit,Chrome,92.0.4515.131,Windows,10.0,5f461dd6c139dd6b46c7596cbd57cd79
218,1,"""","""","""","""","""",survey-multi-choice,2,9464,0.0-2.0,6764,"""","""","{""Q0"":""Yes"",""Q1"":""Yes"",""Q2"":""Yes"",""Q3"":""Yes""}","""","""","""","""","""","""","""","""","2021-08-17 18:03:37",89.152.99.100,"Mozilla/5.0 (Windows NT 10.0; Win64; x64) AppleWebKit/537.36 (KHTML, like Gecko) Chrome/92.0.4515.131 Safari/537.36",WebKit,Chrome,92.0.4515.131,Windows,10.0,5f461dd6c139dd6b46c7596cbd57cd79
218,1,"""","""","""","""","""",survey-html-form,3,21039,0.0-3.0,11571.5,"""","""","{""gender"":""male"",""age"":""25"",""hand"":""right"",""mail"":""5bef1ca4a79efb0001fafb88""}","""","""","""","""","""","""","""","""","2021-08-17 18:03:37",89.152.99.100,"Mozilla/5.0 (Windows NT 10.0; Win64; x64) AppleWebKit/537.36 (KHTML, like Gecko) Chrome/92.0.4515.131 Safari/537.36",WebKit,Chrome,92.0.4515.131,Windows,10.0,5f461dd6c139dd6b46c7596cbd57cd79
218,1,true,"""","""","""","""",fullscreen,4,25912,0.0-4.0,"""","""","""","""","""","""","""","""","""","""","""","""","2021-08-17 18:03:37",89.152.99.100,"Mozilla/5.0 (Windows NT 10.0; Win64; x64) AppleWebKit/537.36 (KHTML, like Gecko) Chrome/92.0.4515.131 Safari/537.36",WebKit,Chrome,92.0.4515.131,Windows,10.0,5f461dd6c139dd6b46c7596cbd57cd79
218,1,"""","""","""","""","""",multikey-instructions,5,146548,0.0-5.0,120628,"""","""","""","[{""page_index"":0,""viewing_time"":25323},{""page_index"":1,""viewing_time"":11929},{""page_index"":2,""viewing_time"":10009},{""page_index"":3,""viewing_time"":32837},{""page_index"":4,""viewing_time"":7884},{""page_index"":5,""viewing_time"":5410},{""page_index"":6,""viewing_time"":3580},{""page_index"":7,""viewing_time"":1765},{""page_index"":8,""viewing_time"":5024},{""page_index"":9,""viewing_time"":6720},{""page_index"":10,""viewing_time"":5818},{""page_index"":11,""viewing_time"":4328}]","""","""","""","""","""","""","""","2021-08-17 18:03:37",89.152.99.100,"Mozilla/5.0 (Windows NT 10.0; Win64; x64) AppleWebKit/537.36 (KHTML, like Gecko) Chrome/92.0.4515.131 Safari/537.36",WebKit,Chrome,92.0.4515.131,Windows,10.0,5f461dd6c139dd6b46c7596cbd57cd79
218,1,"""","""","""","""","""",sampler,6,154587,0.0-6.0-0.0,7628,img/Cobalt.png,"""","""","""",false,-1,5.641301799469204,10,"""","""","""","2021-08-17 18:03:37",89.152.99.100,"Mozilla/5.0 (Windows NT 10.0; Win64; x64) AppleWebKit/537.36 (KHTML, like Gecko) Chrome/92.0.4515.131 Safari/537.36",WebKit,Chrome,92.0.4515.131,Windows,10.0,5f461dd6c139dd6b46c7596cbd57cd79
218,1,"""","""","""","""","""",sampler,7,156481,0.0-6.0-1.0,1485,img/Cobalt.png,"""","""","""",false,-1,0.5992807873692279,10,"""","""","""","2021-08-17 18:03:37",89.152.99.100,"Mozilla/5.0 (Windows NT 10.0; Win64; x64) AppleWebKit/537.36 (KHTML, like Gecko) Chrome/92.0.4515.131 Safari/537.36",WebKit,Chrome,92.0.4515.131,Windows,10.0,5f461dd6c139dd6b46c7596cbd57cd79
218,1,"""","""","""","""","""",sampler,8,156482,0.0-6.0-2.0,"""","""","""","""","""","""","""","""","""","""","""","""","2021-08-17 18:03:37",89.152.99.100,"Mozilla/5.0 (Windows NT 10.0; Win64; x64) AppleWebKit/537.36 (KHTML, like Gecko) Chrome/92.0.4515.131 Safari/537.36",WebKit,Chrome,92.0.4515.131,Windows,10.0,5f461dd6c139dd6b46c7596cbd57cd79
218,1,"""","""","""","""","""",sampler,9,156482,0.0-6.0-3.0,"""","""","""","""","""","""","""","""","""","""","""","""","2021-08-17 18:03:37",89.152.99.100,"Mozilla/5.0 (Windows NT 10.0; Win64; x64) AppleWebKit/537.36 (KHTML, like Gecko) Chrome/92.0.4515.131 Safari/537.36",WebKit,Chrome,92.0.4515.131,Windows,10.0,5f461dd6c139dd6b46c7596cbd57cd79
218,1,"""","""","""","""","""",sampler,10,156482,0.0-6.0-4.0,"""","""","""","""","""","""","""","""","""","""","""","""","2021-08-17 18:03:37",89.152.99.100,"Mozilla/5.0 (Windows NT 10.0; Win64; x64) AppleWebKit/537.36 (KHTML, like Gecko) Chrome/92.0.4515.131 Safari/537.36",WebKit,Chrome,92.0.4515.131,Windows,10.0,5f461dd6c139dd6b46c7596cbd57cd79
218,1,"""","""","""","""","""",sampler,11,156482,0.0-6.0-5.0,"""","""","""","""","""","""","""","""","""","""","""","""","2021-08-17 18:03:37",89.152.99.100,"Mozilla/5.0 (Windows NT 10.0; Win64; x64) AppleWebKit/537.36 (KHTML, like Gecko) Chrome/92.0.4515.131 Safari/537.36",WebKit,Chrome,92.0.4515.131,Windows,10.0,5f461dd6c139dd6b46c7596cbd57cd79
218,1,"""","""","""","""","""",sampler,12,156482,0.0-6.0-6.0,"""","""","""","""","""","""","""","""","""","""","""","""","2021-08-17 18:03:37",89.152.99.100,"Mozilla/5.0 (Windows NT 10.0; Win64; x64) AppleWebKit/537.36 (KHTML, like Gecko) Chrome/92.0.4515.131 Safari/537.36",WebKit,Chrome,92.0.4515.131,Windows,10.0,5f461dd6c139dd6b46c7596cbd57cd79
218,1,"""","""","""","""","""",sampler,13,156483,0.0-6.0-7.0,"""","""","""","""","""","""","""","""","""","""","""","""","2021-08-17 18:03:37",89.152.99.100,"Mozilla/5.0 (Windows NT 10.0; Win64; x64) AppleWebKit/537.36 (KHTML, like Gecko) Chrome/92.0.4515.131 Safari/537.36",WebKit,Chrome,92.0.4515.131,Windows,10.0,5f461dd6c139dd6b46c7596cbd57cd79
218,1,"""","""","""","""","""",sampler,14,156483,0.0-6.0-8.0,"""","""","""","""","""","""","""","""","""","""","""","""","2021-08-17 18:03:37",89.152.99.100,"Mozilla/5.0 (Windows NT 10.0; Win64; x64) AppleWebKit/537.36 (KHTML, like Gecko) Chrome/92.0.4515.131 Safari/537.36",WebKit,Chrome,92.0.4515.131,Windows,10.0,5f461dd6c139dd6b46c7596cbd57cd79
218,1,"""","""","""","""","""",sampler,15,156483,0.0-6.0-9.0,"""","""","""","""","""","""","""","""","""","""","""","""","2021-08-17 18:03:37",89.152.99.100,"Mozilla/5.0 (Windows NT 10.0; Win64; x64) AppleWebKit/537.36 (KHTML, like Gecko) Chrome/92.0.4515.131 Safari/537.36",WebKit,Chrome,92.0.4515.131,Windows,10.0,5f461dd6c139dd6b46c7596cbd57cd79
218,1,"""","""","""","""","""",sampler,16,156483,0.0-6.0-10.0,"""","""","""","""","""","""","""","""","""","""","""","""","2021-08-17 18:03:37",89.152.99.100,"Mozilla/5.0 (Windows NT 10.0; Win64; x64) AppleWebKit/537.36 (KHTML, like Gecko) Chrome/92.0.4515.131 Safari/537.36",WebKit,Chrome,92.0.4515.131,Windows,10.0,5f461dd6c139dd6b46c7596cbd57cd79
218,1,"""","""","""","""","""",sampler,17,156483,0.0-6.0-11.0,"""","""","""","""","""","""","""","""","""","""","""","""","2021-08-17 18:03:37",89.152.99.100,"Mozilla/5.0 (Windows NT 10.0; Win64; x64) AppleWebKit/537.36 (KHTML, like Gecko) Chrome/92.0.4515.131 Safari/537.36",WebKit,Chrome,92.0.4515.131,Windows,10.0,5f461dd6c139dd6b46c7596cbd57cd79
218,1,"""","""","""","""","""",sampler,18,156483,0.0-6.0-12.0,"""","""","""","""","""","""","""","""","""","""","""","""","2021-08-17 18:03:37",89.152.99.100,"Mozilla/5.0 (Windows NT 10.0; Win64; x64) AppleWebKit/537.36 (KHTML, like Gecko) Chrome/92.0.4515.131 Safari/537.36",WebKit,Chrome,92.0.4515.131,Windows,10.0,5f461dd6c139dd6b46c7596cbd57cd79
218,1,"""","""","""","""","""",sampler,19,156483,0.0-6.0-13.0,"""","""","""","""","""","""","""","""","""","""","""","""","2021-08-17 18:03:37",89.152.99.100,"Mozilla/5.0 (Windows NT 10.0; Win64; x64) AppleWebKit/537.36 (KHTML, like Gecko) Chrome/92.0.4515.131 Safari/537.36",WebKit,Chrome,92.0.4515.131,Windows,10.0,5f461dd6c139dd6b46c7596cbd57cd79
218,1,"""","""","""","""","""",sampler,20,156483,0.0-6.0-14.0,"""","""","""","""","""","""","""","""","""","""","""","""","2021-08-17 18:03:37",89.152.99.100,"Mozilla/5.0 (Windows NT 10.0; Win64; x64) AppleWebKit/537.36 (KHTML, like Gecko) Chrome/92.0.4515.131 Safari/537.36",WebKit,Chrome,92.0.4515.131,Windows,10.0,5f461dd6c139dd6b46c7596cbd57cd79
218,1,"""","""","""","""","""",sampler,21,156484,0.0-6.0-15.0,"""","""","""","""","""","""","""","""","""","""","""","""","2021-08-17 18:03:37",89.152.99.100,"Mozilla/5.0 (Windows NT 10.0; Win64; x64) AppleWebKit/537.36 (KHTML, like Gecko) Chrome/92.0.4515.131 Safari/537.36",WebKit,Chrome,92.0.4515.131,Windows,10.0,5f461dd6c139dd6b46c7596cbd57cd79
218,1,"""","""","""","""","""",sampler,22,156484,0.0-6.0-16.0,"""","""","""","""","""","""","""","""","""","""","""","""","2021-08-17 18:03:37",89.152.99.100,"Mozilla/5.0 (Windows NT 10.0; Win64; x64) AppleWebKit/537.36 (KHTML, like Gecko) Chrome/92.0.4515.131 Safari/537.36",WebKit,Chrome,92.0.4515.131,Windows,10.0,5f461dd6c139dd6b46c7596cbd57cd79
218,1,"""","""","""","""","""",sampler,23,156484,0.0-6.0-17.0,"""","""","""","""","""","""","""","""","""","""","""","""","2021-08-17 18:03:37",89.152.99.100,"Mozilla/5.0 (Windows NT 10.0; Win64; x64) AppleWebKit/537.36 (KHTML, like Gecko) Chrome/92.0.4515.131 Safari/537.36",WebKit,Chrome,92.0.4515.131,Windows,10.0,5f461dd6c139dd6b46c7596cbd57cd79
218,1,"""","""","""","""","""",sampler,24,156484,0.0-6.0-18.0,"""","""","""","""","""","""","""","""","""","""","""","""","2021-08-17 18:03:37",89.152.99.100,"Mozilla/5.0 (Windows NT 10.0; Win64; x64) AppleWebKit/537.36 (KHTML, like Gecko) Chrome/92.0.4515.131 Safari/537.36",WebKit,Chrome,92.0.4515.131,Windows,10.0,5f461dd6c139dd6b46c7596cbd57cd79
218,1,"""","""","""","""","""",sampler,25,156484,0.0-6.0-19.0,"""","""","""","""","""","""","""","""","""","""","""","""","2021-08-17 18:03:37",89.152.99.100,"Mozilla/5.0 (Windows NT 10.0; Win64; x64) AppleWebKit/537.36 (KHTML, like Gecko) Chrome/92.0.4515.131 Safari/537.36",WebKit,Chrome,92.0.4515.131,Windows,10.0,5f461dd6c139dd6b46c7596cbd57cd79
218,1,"""","""","""","""","""",sampler,26,156484,0.0-6.0-20.0,"""","""","""","""","""","""","""","""","""","""","""","""","2021-08-17 18:03:37",89.152.99.100,"Mozilla/5.0 (Windows NT 10.0; Win64; x64) AppleWebKit/537.36 (KHTML, like Gecko) Chrome/92.0.4515.131 Safari/537.36",WebKit,Chrome,92.0.4515.131,Windows,10.0,5f461dd6c139dd6b46c7596cbd57cd79
218,1,"""","""","""","""","""",sampler,27,156484,0.0-6.0-21.0,"""","""","""","""","""","""","""","""","""","""","""","""","2021-08-17 18:03:37",89.152.99.100,"Mozilla/5.0 (Windows NT 10.0; Win64; x64) AppleWebKit/537.36 (KHTML, like Gecko) Chrome/92.0.4515.131 Safari/537.36",WebKit,Chrome,92.0.4515.131,Windows,10.0,5f461dd6c139dd6b46c7596cbd57cd79
218,1,"""","""","""","""","""",sampler,28,156484,0.0-6.0-22.0,"""","""","""","""","""","""","""","""","""","""","""","""","2021-08-17 18:03:37",89.152.99.100,"Mozilla/5.0 (Windows NT 10.0; Win64; x64) AppleWebKit/537.36 (KHTML, like Gecko) Chrome/92.0.4515.131 Safari/537.36",WebKit,Chrome,92.0.4515.131,Windows,10.0,5f461dd6c139dd6b46c7596cbd57cd79
218,1,"""","""","""","""","""",sampler,29,156484,0.0-6.0-23.0,"""","""","""","""","""","""","""","""","""","""","""","""","2021-08-17 18:03:37",89.152.99.100,"Mozilla/5.0 (Windows NT 10.0; Win64; x64) AppleWebKit/537.36 (KHTML, like Gecko) Chrome/92.0.4515.131 Safari/537.36",WebKit,Chrome,92.0.4515.131,Windows,10.0,5f461dd6c139dd6b46c7596cbd57cd79
218,1,"""","""","""","""","""",sampler,30,156485,0.0-6.0-24.0,"""","""","""","""","""","""","""","""","""","""","""","""","2021-08-17 18:03:37",89.152.99.100,"Mozilla/5.0 (Windows NT 10.0; Win64; x64) AppleWebKit/537.36 (KHTML, like Gecko) Chrome/92.0.4515.131 Safari/537.36",WebKit,Chrome,92.0.4515.131,Windows,10.0,5f461dd6c139dd6b46c7596cbd57cd79
218,1,"""","""","""","""","""",sampler,31,156485,0.0-6.0-25.0,"""","""","""","""","""","""","""","""","""","""","""","""","2021-08-17 18:03:37",89.152.99.100,"Mozilla/5.0 (Windows NT 10.0; Win64; x64) AppleWebKit/537.36 (KHTML, like Gecko) Chrome/92.0.4515.131 Safari/537.36",WebKit,Chrome,92.0.4515.131,Windows,10.0,5f461dd6c139dd6b46c7596cbd57cd79
218,1,"""","""","""","""","""",sampler,32,156485,0.0-6.0-26.0,"""","""","""","""","""","""","""","""","""","""","""","""","2021-08-17 18:03:37",89.152.99.100,"Mozilla/5.0 (Windows NT 10.0; Win64; x64) AppleWebKit/537.36 (KHTML, like Gecko) Chrome/92.0.4515.131 Safari/537.36",WebKit,Chrome,92.0.4515.131,Windows,10.0,5f461dd6c139dd6b46c7596cbd57cd79
218,1,"""","""","""","""","""",sampler,33,156485,0.0-6.0-27.0,"""","""","""","""","""","""","""","""","""","""","""","""","2021-08-17 18:03:37",89.152.99.100,"Mozilla/5.0 (Windows NT 10.0; Win64; x64) AppleWebKit/537.36 (KHTML, like Gecko) Chrome/92.0.4515.131 Safari/537.36",WebKit,Chrome,92.0.4515.131,Windows,10.0,5f461dd6c139dd6b46c7596cbd57cd79
218,1,"""","""","""","""","""",sampler,34,156485,0.0-6.0-28.0,"""","""","""","""","""","""","""","""","""","""","""","""","2021-08-17 18:03:37",89.152.99.100,"Mozilla/5.0 (Windows NT 10.0; Win64; x64) AppleWebKit/537.36 (KHTML, like Gecko) Chrome/92.0.4515.131 Safari/537.36",WebKit,Chrome,92.0.4515.131,Windows,10.0,5f461dd6c139dd6b46c7596cbd57cd79
218,1,"""","""","""","""","""",sampler,35,156485,0.0-6.0-29.0,"""","""","""","""","""","""","""","""","""","""","""","""","2021-08-17 18:03:37",89.152.99.100,"Mozilla/5.0 (Windows NT 10.0; Win64; x64) AppleWebKit/537.36 (KHTML, like Gecko) Chrome/92.0.4515.131 Safari/537.36",WebKit,Chrome,92.0.4515.131,Windows,10.0,5f461dd6c139dd6b46c7596cbd57cd79
218,1,"""","""","""","""","""",sampler,36,156485,0.0-6.0-30.0,"""","""","""","""","""","""","""","""","""","""","""","""","2021-08-17 18:03:37",89.152.99.100,"Mozilla/5.0 (Windows NT 10.0; Win64; x64) AppleWebKit/537.36 (KHTML, like Gecko) Chrome/92.0.4515.131 Safari/537.36",WebKit,Chrome,92.0.4515.131,Windows,10.0,5f461dd6c139dd6b46c7596cbd57cd79
218,1,"""","""","""","""","""",sampler,37,156485,0.0-6.0-31.0,"""","""","""","""","""","""","""","""","""","""","""","""","2021-08-17 18:03:37",89.152.99.100,"Mozilla/5.0 (Windows NT 10.0; Win64; x64) AppleWebKit/537.36 (KHTML, like Gecko) Chrome/92.0.4515.131 Safari/537.36",WebKit,Chrome,92.0.4515.131,Windows,10.0,5f461dd6c139dd6b46c7596cbd57cd79
218,1,"""","""","""","""","""",sampler,38,156485,0.0-6.0-32.0,"""","""","""","""","""","""","""","""","""","""","""","""","2021-08-17 18:03:37",89.152.99.100,"Mozilla/5.0 (Windows NT 10.0; Win64; x64) AppleWebKit/537.36 (KHTML, like Gecko) Chrome/92.0.4515.131 Safari/537.36",WebKit,Chrome,92.0.4515.131,Windows,10.0,5f461dd6c139dd6b46c7596cbd57cd79
218,1,"""","""","""","""","""",sampler,39,156486,0.0-6.0-33.0,"""","""","""","""","""","""","""","""","""","""","""","""","2021-08-17 18:03:37",89.152.99.100,"Mozilla/5.0 (Windows NT 10.0; Win64; x64) AppleWebKit/537.36 (KHTML, like Gecko) Chrome/92.0.4515.131 Safari/537.36",WebKit,Chrome,92.0.4515.131,Windows,10.0,5f461dd6c139dd6b46c7596cbd57cd79
218,1,"""","""","""","""","""",sampler,40,156486,0.0-6.0-34.0,"""","""","""","""","""","""","""","""","""","""","""","""","2021-08-17 18:03:37",89.152.99.100,"Mozilla/5.0 (Windows NT 10.0; Win64; x64) AppleWebKit/537.36 (KHTML, like Gecko) Chrome/92.0.4515.131 Safari/537.36",WebKit,Chrome,92.0.4515.131,Windows,10.0,5f461dd6c139dd6b46c7596cbd57cd79
218,1,"""","""","""","""","""",sampler,41,156486,0.0-6.0-35.0,"""","""","""","""","""","""","""","""","""","""","""","""","2021-08-17 18:03:37",89.152.99.100,"Mozilla/5.0 (Windows NT 10.0; Win64; x64) AppleWebKit/537.36 (KHTML, like Gecko) Chrome/92.0.4515.131 Safari/537.36",WebKit,Chrome,92.0.4515.131,Windows,10.0,5f461dd6c139dd6b46c7596cbd57cd79
218,1,"""","""","""","""","""",sampler,42,156486,0.0-6.0-36.0,"""","""","""","""","""","""","""","""","""","""","""","""","2021-08-17 18:03:37",89.152.99.100,"Mozilla/5.0 (Windows NT 10.0; Win64; x64) AppleWebKit/537.36 (KHTML, like Gecko) Chrome/92.0.4515.131 Safari/537.36",WebKit,Chrome,92.0.4515.131,Windows,10.0,5f461dd6c139dd6b46c7596cbd57cd79
218,1,"""","""","""","""","""",sampler,43,156486,0.0-6.0-37.0,"""","""","""","""","""","""","""","""","""","""","""","""","2021-08-17 18:03:37",89.152.99.100,"Mozilla/5.0 (Windows NT 10.0; Win64; x64) AppleWebKit/537.36 (KHTML, like Gecko) Chrome/92.0.4515.131 Safari/537.36",WebKit,Chrome,92.0.4515.131,Windows,10.0,5f461dd6c139dd6b46c7596cbd57cd79
218,1,"""","""","""","""","""",sampler,44,156486,0.0-6.0-38.0,"""","""","""","""","""","""","""","""","""","""","""","""","2021-08-17 18:03:37",89.152.99.100,"Mozilla/5.0 (Windows NT 10.0; Win64; x64) AppleWebKit/537.36 (KHTML, like Gecko) Chrome/92.0.4515.131 Safari/537.36",WebKit,Chrome,92.0.4515.131,Windows,10.0,5f461dd6c139dd6b46c7596cbd57cd79
218,1,"""","""","""","""","""",sampler,45,156486,0.0-6.0-39.0,"""","""","""","""","""","""","""","""","""","""","""","""","2021-08-17 18:03:37",89.152.99.100,"Mozilla/5.0 (Windows NT 10.0; Win64; x64) AppleWebKit/537.36 (KHTML, like Gecko) Chrome/92.0.4515.131 Safari/537.36",WebKit,Chrome,92.0.4515.131,Windows,10.0,5f461dd6c139dd6b46c7596cbd57cd79
218,1,"""","""","""","""","""",sampler,46,156486,0.0-6.0-40.0,"""","""","""","""","""","""","""","""","""","""","""","""","2021-08-17 18:03:37",89.152.99.100,"Mozilla/5.0 (Windows NT 10.0; Win64; x64) AppleWebKit/537.36 (KHTML, like Gecko) Chrome/92.0.4515.131 Safari/537.36",WebKit,Chrome,92.0.4515.131,Windows,10.0,5f461dd6c139dd6b46c7596cbd57cd79
218,1,"""","""","""","""","""",sampler,47,156486,0.0-6.0-41.0,"""","""","""","""","""","""","""","""","""","""","""","""","2021-08-17 18:03:37",89.152.99.100,"Mozilla/5.0 (Windows NT 10.0; Win64; x64) AppleWebKit/537.36 (KHTML, like Gecko) Chrome/92.0.4515.131 Safari/537.36",WebKit,Chrome,92.0.4515.131,Windows,10.0,5f461dd6c139dd6b46c7596cbd57cd79
218,1,"""","""","""","""","""",sampler,48,156487,0.0-6.0-42.0,"""","""","""","""","""","""","""","""","""","""","""","""","2021-08-17 18:03:37",89.152.99.100,"Mozilla/5.0 (Windows NT 10.0; Win64; x64) AppleWebKit/537.36 (KHTML, like Gecko) Chrome/92.0.4515.131 Safari/537.36",WebKit,Chrome,92.0.4515.131,Windows,10.0,5f461dd6c139dd6b46c7596cbd57cd79
218,1,"""","""","""","""","""",sampler,49,156487,0.0-6.0-43.0,"""","""","""","""","""","""","""","""","""","""","""","""","2021-08-17 18:03:37",89.152.99.100,"Mozilla/5.0 (Windows NT 10.0; Win64; x64) AppleWebKit/537.36 (KHTML, like Gecko) Chrome/92.0.4515.131 Safari/537.36",WebKit,Chrome,92.0.4515.131,Windows,10.0,5f461dd6c139dd6b46c7596cbd57cd79
218,1,"""","""","""","""","""",sampler,50,156487,0.0-6.0-44.0,"""","""","""","""","""","""","""","""","""","""","""","""","2021-08-17 18:03:37",89.152.99.100,"Mozilla/5.0 (Windows NT 10.0; Win64; x64) AppleWebKit/537.36 (KHTML, like Gecko) Chrome/92.0.4515.131 Safari/537.36",WebKit,Chrome,92.0.4515.131,Windows,10.0,5f461dd6c139dd6b46c7596cbd57cd79
218,1,"""","""","""","""","""",sampler,51,156487,0.0-6.0-45.0,"""","""","""","""","""","""","""","""","""","""","""","""","2021-08-17 18:03:37",89.152.99.100,"Mozilla/5.0 (Windows NT 10.0; Win64; x64) AppleWebKit/537.36 (KHTML, like Gecko) Chrome/92.0.4515.131 Safari/537.36",WebKit,Chrome,92.0.4515.131,Windows,10.0,5f461dd6c139dd6b46c7596cbd57cd79
218,1,"""","""","""","""","""",sampler,52,156487,0.0-6.0-46.0,"""","""","""","""","""","""","""","""","""","""","""","""","2021-08-17 18:03:37",89.152.99.100,"Mozilla/5.0 (Windows NT 10.0; Win64; x64) AppleWebKit/537.36 (KHTML, like Gecko) Chrome/92.0.4515.131 Safari/537.36",WebKit,Chrome,92.0.4515.131,Windows,10.0,5f461dd6c139dd6b46c7596cbd57cd79
218,1,"""","""","""","""","""",sampler,53,156487,0.0-6.0-47.0,"""","""","""","""","""","""","""","""","""","""","""","""","2021-08-17 18:03:37",89.152.99.100,"Mozilla/5.0 (Windows NT 10.0; Win64; x64) AppleWebKit/537.36 (KHTML, like Gecko) Chrome/92.0.4515.131 Safari/537.36",WebKit,Chrome,92.0.4515.131,Windows,10.0,5f461dd6c139dd6b46c7596cbd57cd79
218,1,"""","""","""","""","""",sampler,54,156487,0.0-6.0-48.0,"""","""","""","""","""","""","""","""","""","""","""","""","2021-08-17 18:03:37",89.152.99.100,"Mozilla/5.0 (Windows NT 10.0; Win64; x64) AppleWebKit/537.36 (KHTML, like Gecko) Chrome/92.0.4515.131 Safari/537.36",WebKit,Chrome,92.0.4515.131,Windows,10.0,5f461dd6c139dd6b46c7596cbd57cd79
218,1,"""","""","""","""","""",sampler,55,156487,0.0-6.0-49.0,"""","""","""","""","""","""","""","""","""","""","""","""","2021-08-17 18:03:37",89.152.99.100,"Mozilla/5.0 (Windows NT 10.0; Win64; x64) AppleWebKit/537.36 (KHTML, like Gecko) Chrome/92.0.4515.131 Safari/537.36",WebKit,Chrome,92.0.4515.131,Windows,10.0,5f461dd6c139dd6b46c7596cbd57cd79
218,1,"""","""","""","""","""",sampler,56,156488,0.0-6.0-50.0,"""","""","""","""","""","""","""","""","""","""","""","""","2021-08-17 18:03:37",89.152.99.100,"Mozilla/5.0 (Windows NT 10.0; Win64; x64) AppleWebKit/537.36 (KHTML, like Gecko) Chrome/92.0.4515.131 Safari/537.36",WebKit,Chrome,92.0.4515.131,Windows,10.0,5f461dd6c139dd6b46c7596cbd57cd79
218,1,"""","""","""","""","""",sampler,57,156488,0.0-6.0-51.0,"""","""","""","""","""","""","""","""","""","""","""","""","2021-08-17 18:03:37",89.152.99.100,"Mozilla/5.0 (Windows NT 10.0; Win64; x64) AppleWebKit/537.36 (KHTML, like Gecko) Chrome/92.0.4515.131 Safari/537.36",WebKit,Chrome,92.0.4515.131,Windows,10.0,5f461dd6c139dd6b46c7596cbd57cd79
218,1,"""","""","""","""","""",sampler,58,156488,0.0-6.0-52.0,"""","""","""","""","""","""","""","""","""","""","""","""","2021-08-17 18:03:37",89.152.99.100,"Mozilla/5.0 (Windows NT 10.0; Win64; x64) AppleWebKit/537.36 (KHTML, like Gecko) Chrome/92.0.4515.131 Safari/537.36",WebKit,Chrome,92.0.4515.131,Windows,10.0,5f461dd6c139dd6b46c7596cbd57cd79
218,1,"""","""","""","""","""",sampler,59,156488,0.0-6.0-53.0,"""","""","""","""","""","""","""","""","""","""","""","""","2021-08-17 18:03:37",89.152.99.100,"Mozilla/5.0 (Windows NT 10.0; Win64; x64) AppleWebKit/537.36 (KHTML, like Gecko) Chrome/92.0.4515.131 Safari/537.36",WebKit,Chrome,92.0.4515.131,Windows,10.0,5f461dd6c139dd6b46c7596cbd57cd79
218,1,"""","""","""","""","""",sampler,60,156488,0.0-6.0-54.0,"""","""","""","""","""","""","""","""","""","""","""","""","2021-08-17 18:03:37",89.152.99.100,"Mozilla/5.0 (Windows NT 10.0; Win64; x64) AppleWebKit/537.36 (KHTML, like Gecko) Chrome/92.0.4515.131 Safari/537.36",WebKit,Chrome,92.0.4515.131,Windows,10.0,5f461dd6c139dd6b46c7596cbd57cd79
218,1,"""","""","""","""","""",sampler,61,156488,0.0-6.0-55.0,"""","""","""","""","""","""","""","""","""","""","""","""","2021-08-17 18:03:37",89.152.99.100,"Mozilla/5.0 (Windows NT 10.0; Win64; x64) AppleWebKit/537.36 (KHTML, like Gecko) Chrome/92.0.4515.131 Safari/537.36",WebKit,Chrome,92.0.4515.131,Windows,10.0,5f461dd6c139dd6b46c7596cbd57cd79
218,1,"""","""","""","""","""",sampler,62,156488,0.0-6.0-56.0,"""","""","""","""","""","""","""","""","""","""","""","""","2021-08-17 18:03:37",89.152.99.100,"Mozilla/5.0 (Windows NT 10.0; Win64; x64) AppleWebKit/537.36 (KHTML, like Gecko) Chrome/92.0.4515.131 Safari/537.36",WebKit,Chrome,92.0.4515.131,Windows,10.0,5f461dd6c139dd6b46c7596cbd57cd79
218,1,"""","""","""","""","""",sampler,63,156488,0.0-6.0-57.0,"""","""","""","""","""","""","""","""","""","""","""","""","2021-08-17 18:03:37",89.152.99.100,"Mozilla/5.0 (Windows NT 10.0; Win64; x64) AppleWebKit/537.36 (KHTML, like Gecko) Chrome/92.0.4515.131 Safari/537.36",WebKit,Chrome,92.0.4515.131,Windows,10.0,5f461dd6c139dd6b46c7596cbd57cd79
218,1,"""","""","""","""","""",sampler,64,156489,0.0-6.0-58.0,"""","""","""","""","""","""","""","""","""","""","""","""","2021-08-17 18:03:37",89.152.99.100,"Mozilla/5.0 (Windows NT 10.0; Win64; x64) AppleWebKit/537.36 (KHTML, like Gecko) Chrome/92.0.4515.131 Safari/537.36",WebKit,Chrome,92.0.4515.131,Windows,10.0,5f461dd6c139dd6b46c7596cbd57cd79
218,1,"""","""","""","""","""",sampler,65,156489,0.0-6.0-59.0,"""","""","""","""","""","""","""","""","""","""","""","""","2021-08-17 18:03:37",89.152.99.100,"Mozilla/5.0 (Windows NT 10.0; Win64; x64) AppleWebKit/537.36 (KHTML, like Gecko) Chrome/92.0.4515.131 Safari/537.36",WebKit,Chrome,92.0.4515.131,Windows,10.0,5f461dd6c139dd6b46c7596cbd57cd79
218,1,"""","""","""","""","""",sampler,66,156489,0.0-6.0-60.0,"""","""","""","""","""","""","""","""","""","""","""","""","2021-08-17 18:03:37",89.152.99.100,"Mozilla/5.0 (Windows NT 10.0; Win64; x64) AppleWebKit/537.36 (KHTML, like Gecko) Chrome/92.0.4515.131 Safari/537.36",WebKit,Chrome,92.0.4515.131,Windows,10.0,5f461dd6c139dd6b46c7596cbd57cd79
218,1,"""","""","""","""","""",sampler,67,156489,0.0-6.0-61.0,"""","""","""","""","""","""","""","""","""","""","""","""","2021-08-17 18:03:37",89.152.99.100,"Mozilla/5.0 (Windows NT 10.0; Win64; x64) AppleWebKit/537.36 (KHTML, like Gecko) Chrome/92.0.4515.131 Safari/537.36",WebKit,Chrome,92.0.4515.131,Windows,10.0,5f461dd6c139dd6b46c7596cbd57cd79
218,1,"""","""","""","""","""",sampler,68,156489,0.0-6.0-62.0,"""","""","""","""","""","""","""","""","""","""","""","""","2021-08-17 18:03:37",89.152.99.100,"Mozilla/5.0 (Windows NT 10.0; Win64; x64) AppleWebKit/537.36 (KHTML, like Gecko) Chrome/92.0.4515.131 Safari/537.36",WebKit,Chrome,92.0.4515.131,Windows,10.0,5f461dd6c139dd6b46c7596cbd57cd79
218,1,"""","""","""","""","""",sampler,69,156489,0.0-6.0-63.0,"""","""","""","""","""","""","""","""","""","""","""","""","2021-08-17 18:03:37",89.152.99.100,"Mozilla/5.0 (Windows NT 10.0; Win64; x64) AppleWebKit/537.36 (KHTML, like Gecko) Chrome/92.0.4515.131 Safari/537.36",WebKit,Chrome,92.0.4515.131,Windows,10.0,5f461dd6c139dd6b46c7596cbd57cd79
218,1,"""","""","""","""","""",sampler,70,156490,0.0-6.0-64.0,"""","""","""","""","""","""","""","""","""","""","""","""","2021-08-17 18:03:37",89.152.99.100,"Mozilla/5.0 (Windows NT 10.0; Win64; x64) AppleWebKit/537.36 (KHTML, like Gecko) Chrome/92.0.4515.131 Safari/537.36",WebKit,Chrome,92.0.4515.131,Windows,10.0,5f461dd6c139dd6b46c7596cbd57cd79
218,1,"""","""","""","""","""",sampler,71,156490,0.0-6.0-65.0,"""","""","""","""","""","""","""","""","""","""","""","""","2021-08-17 18:03:37",89.152.99.100,"Mozilla/5.0 (Windows NT 10.0; Win64; x64) AppleWebKit/537.36 (KHTML, like Gecko) Chrome/92.0.4515.131 Safari/537.36",WebKit,Chrome,92.0.4515.131,Windows,10.0,5f461dd6c139dd6b46c7596cbd57cd79
218,1,"""","""","""","""","""",sampler,72,156490,0.0-6.0-66.0,"""","""","""","""","""","""","""","""","""","""","""","""","2021-08-17 18:03:37",89.152.99.100,"Mozilla/5.0 (Windows NT 10.0; Win64; x64) AppleWebKit/537.36 (KHTML, like Gecko) Chrome/92.0.4515.131 Safari/537.36",WebKit,Chrome,92.0.4515.131,Windows,10.0,5f461dd6c139dd6b46c7596cbd57cd79
218,1,"""","""","""","""","""",sampler,73,156491,0.0-6.0-67.0,"""","""","""","""","""","""","""","""","""","""","""","""","2021-08-17 18:03:37",89.152.99.100,"Mozilla/5.0 (Windows NT 10.0; Win64; x64) AppleWebKit/537.36 (KHTML, like Gecko) Chrome/92.0.4515.131 Safari/537.36",WebKit,Chrome,92.0.4515.131,Windows,10.0,5f461dd6c139dd6b46c7596cbd57cd79
218,1,"""","""","""","""","""",sampler,74,156491,0.0-6.0-68.0,"""","""","""","""","""","""","""","""","""","""","""","""","2021-08-17 18:03:37",89.152.99.100,"Mozilla/5.0 (Windows NT 10.0; Win64; x64) AppleWebKit/537.36 (KHTML, like Gecko) Chrome/92.0.4515.131 Safari/537.36",WebKit,Chrome,92.0.4515.131,Windows,10.0,5f461dd6c139dd6b46c7596cbd57cd79
218,1,"""","""","""","""","""",sampler,75,156491,0.0-6.0-69.0,"""","""","""","""","""","""","""","""","""","""","""","""","2021-08-17 18:03:37",89.152.99.100,"Mozilla/5.0 (Windows NT 10.0; Win64; x64) AppleWebKit/537.36 (KHTML, like Gecko) Chrome/92.0.4515.131 Safari/537.36",WebKit,Chrome,92.0.4515.131,Windows,10.0,5f461dd6c139dd6b46c7596cbd57cd79
218,1,"""","""","""","""","""",sampler,76,156491,0.0-6.0-70.0,"""","""","""","""","""","""","""","""","""","""","""","""","2021-08-17 18:03:37",89.152.99.100,"Mozilla/5.0 (Windows NT 10.0; Win64; x64) AppleWebKit/537.36 (KHTML, like Gecko) Chrome/92.0.4515.131 Safari/537.36",WebKit,Chrome,92.0.4515.131,Windows,10.0,5f461dd6c139dd6b46c7596cbd57cd79
218,1,"""","""","""","""","""",sampler,77,156491,0.0-6.0-71.0,"""","""","""","""","""","""","""","""","""","""","""","""","2021-08-17 18:03:37",89.152.99.100,"Mozilla/5.0 (Windows NT 10.0; Win64; x64) AppleWebKit/537.36 (KHTML, like Gecko) Chrome/92.0.4515.131 Safari/537.36",WebKit,Chrome,92.0.4515.131,Windows,10.0,5f461dd6c139dd6b46c7596cbd57cd79
218,1,"""","""","""","""","""",sampler,78,156491,0.0-6.0-72.0,"""","""","""","""","""","""","""","""","""","""","""","""","2021-08-17 18:03:37",89.152.99.100,"Mozilla/5.0 (Windows NT 10.0; Win64; x64) AppleWebKit/537.36 (KHTML, like Gecko) Chrome/92.0.4515.131 Safari/537.36",WebKit,Chrome,92.0.4515.131,Windows,10.0,5f461dd6c139dd6b46c7596cbd57cd79
218,1,"""","""","""","""","""",sampler,79,156491,0.0-6.0-73.0,"""","""","""","""","""","""","""","""","""","""","""","""","2021-08-17 18:03:37",89.152.99.100,"Mozilla/5.0 (Windows NT 10.0; Win64; x64) AppleWebKit/537.36 (KHTML, like Gecko) Chrome/92.0.4515.131 Safari/537.36",WebKit,Chrome,92.0.4515.131,Windows,10.0,5f461dd6c139dd6b46c7596cbd57cd79
218,1,"""","""","""","""","""",sampler,80,156491,0.0-6.0-74.0,"""","""","""","""","""","""","""","""","""","""","""","""","2021-08-17 18:03:37",89.152.99.100,"Mozilla/5.0 (Windows NT 10.0; Win64; x64) AppleWebKit/537.36 (KHTML, like Gecko) Chrome/92.0.4515.131 Safari/537.36",WebKit,Chrome,92.0.4515.131,Windows,10.0,5f461dd6c139dd6b46c7596cbd57cd79
218,1,"""","""","""","""","""",sampler,81,156492,0.0-6.0-75.0,"""","""","""","""","""","""","""","""","""","""","""","""","2021-08-17 18:03:37",89.152.99.100,"Mozilla/5.0 (Windows NT 10.0; Win64; x64) AppleWebKit/537.36 (KHTML, like Gecko) Chrome/92.0.4515.131 Safari/537.36",WebKit,Chrome,92.0.4515.131,Windows,10.0,5f461dd6c139dd6b46c7596cbd57cd79
218,1,"""","""","""","""","""",sampler,82,156492,0.0-6.0-76.0,"""","""","""","""","""","""","""","""","""","""","""","""","2021-08-17 18:03:37",89.152.99.100,"Mozilla/5.0 (Windows NT 10.0; Win64; x64) AppleWebKit/537.36 (KHTML, like Gecko) Chrome/92.0.4515.131 Safari/537.36",WebKit,Chrome,92.0.4515.131,Windows,10.0,5f461dd6c139dd6b46c7596cbd57cd79
218,1,"""","""","""","""","""",sampler,83,156492,0.0-6.0-77.0,"""","""","""","""","""","""","""","""","""","""","""","""","2021-08-17 18:03:37",89.152.99.100,"Mozilla/5.0 (Windows NT 10.0; Win64; x64) AppleWebKit/537.36 (KHTML, like Gecko) Chrome/92.0.4515.131 Safari/537.36",WebKit,Chrome,92.0.4515.131,Windows,10.0,5f461dd6c139dd6b46c7596cbd57cd79
218,1,"""","""","""","""","""",sampler,84,156492,0.0-6.0-78.0,"""","""","""","""","""","""","""","""","""","""","""","""","2021-08-17 18:03:37",89.152.99.100,"Mozilla/5.0 (Windows NT 10.0; Win64; x64) AppleWebKit/537.36 (KHTML, like Gecko) Chrome/92.0.4515.131 Safari/537.36",WebKit,Chrome,92.0.4515.131,Windows,10.0,5f461dd6c139dd6b46c7596cbd57cd79
218,1,"""","""","""","""","""",sampler,85,156492,0.0-6.0-79.0,"""","""","""","""","""","""","""","""","""","""","""","""","2021-08-17 18:03:37",89.152.99.100,"Mozilla/5.0 (Windows NT 10.0; Win64; x64) AppleWebKit/537.36 (KHTML, like Gecko) Chrome/92.0.4515.131 Safari/537.36",WebKit,Chrome,92.0.4515.131,Windows,10.0,5f461dd6c139dd6b46c7596cbd57cd79
218,1,"""","""","""","""","""",sampler,86,156493,0.0-6.0-80.0,"""","""","""","""","""","""","""","""","""","""","""","""","2021-08-17 18:03:37",89.152.99.100,"Mozilla/5.0 (Windows NT 10.0; Win64; x64) AppleWebKit/537.36 (KHTML, like Gecko) Chrome/92.0.4515.131 Safari/537.36",WebKit,Chrome,92.0.4515.131,Windows,10.0,5f461dd6c139dd6b46c7596cbd57cd79
218,1,"""","""","""","""","""",sampler,87,156493,0.0-6.0-81.0,"""","""","""","""","""","""","""","""","""","""","""","""","2021-08-17 18:03:37",89.152.99.100,"Mozilla/5.0 (Windows NT 10.0; Win64; x64) AppleWebKit/537.36 (KHTML, like Gecko) Chrome/92.0.4515.131 Safari/537.36",WebKit,Chrome,92.0.4515.131,Windows,10.0,5f461dd6c139dd6b46c7596cbd57cd79
218,1,"""","""","""","""","""",sampler,88,156493,0.0-6.0-82.0,"""","""","""","""","""","""","""","""","""","""","""","""","2021-08-17 18:03:37",89.152.99.100,"Mozilla/5.0 (Windows NT 10.0; Win64; x64) AppleWebKit/537.36 (KHTML, like Gecko) Chrome/92.0.4515.131 Safari/537.36",WebKit,Chrome,92.0.4515.131,Windows,10.0,5f461dd6c139dd6b46c7596cbd57cd79
218,1,"""","""","""","""","""",sampler,89,156493,0.0-6.0-83.0,"""","""","""","""","""","""","""","""","""","""","""","""","2021-08-17 18:03:37",89.152.99.100,"Mozilla/5.0 (Windows NT 10.0; Win64; x64) AppleWebKit/537.36 (KHTML, like Gecko) Chrome/92.0.4515.131 Safari/537.36",WebKit,Chrome,92.0.4515.131,Windows,10.0,5f461dd6c139dd6b46c7596cbd57cd79
218,1,"""","""","""","""","""",sampler,90,156493,0.0-6.0-84.0,"""","""","""","""","""","""","""","""","""","""","""","""","2021-08-17 18:03:37",89.152.99.100,"Mozilla/5.0 (Windows NT 10.0; Win64; x64) AppleWebKit/537.36 (KHTML, like Gecko) Chrome/92.0.4515.131 Safari/537.36",WebKit,Chrome,92.0.4515.131,Windows,10.0,5f461dd6c139dd6b46c7596cbd57cd79
218,1,"""","""","""","""","""",sampler,91,156493,0.0-6.0-85.0,"""","""","""","""","""","""","""","""","""","""","""","""","2021-08-17 18:03:37",89.152.99.100,"Mozilla/5.0 (Windows NT 10.0; Win64; x64) AppleWebKit/537.36 (KHTML, like Gecko) Chrome/92.0.4515.131 Safari/537.36",WebKit,Chrome,92.0.4515.131,Windows,10.0,5f461dd6c139dd6b46c7596cbd57cd79
218,1,"""","""","""","""","""",sampler,92,156493,0.0-6.0-86.0,"""","""","""","""","""","""","""","""","""","""","""","""","2021-08-17 18:03:37",89.152.99.100,"Mozilla/5.0 (Windows NT 10.0; Win64; x64) AppleWebKit/537.36 (KHTML, like Gecko) Chrome/92.0.4515.131 Safari/537.36",WebKit,Chrome,92.0.4515.131,Windows,10.0,5f461dd6c139dd6b46c7596cbd57cd79
218,1,"""","""","""","""","""",sampler,93,156493,0.0-6.0-87.0,"""","""","""","""","""","""","""","""","""","""","""","""","2021-08-17 18:03:37",89.152.99.100,"Mozilla/5.0 (Windows NT 10.0; Win64; x64) AppleWebKit/537.36 (KHTML, like Gecko) Chrome/92.0.4515.131 Safari/537.36",WebKit,Chrome,92.0.4515.131,Windows,10.0,5f461dd6c139dd6b46c7596cbd57cd79
218,1,"""","""","""","""","""",sampler,94,156494,0.0-6.0-88.0,"""","""","""","""","""","""","""","""","""","""","""","""","2021-08-17 18:03:37",89.152.99.100,"Mozilla/5.0 (Windows NT 10.0; Win64; x64) AppleWebKit/537.36 (KHTML, like Gecko) Chrome/92.0.4515.131 Safari/537.36",WebKit,Chrome,92.0.4515.131,Windows,10.0,5f461dd6c139dd6b46c7596cbd57cd79
218,1,"""","""","""","""","""",sampler,95,156494,0.0-6.0-89.0,"""","""","""","""","""","""","""","""","""","""","""","""","2021-08-17 18:03:37",89.152.99.100,"Mozilla/5.0 (Windows NT 10.0; Win64; x64) AppleWebKit/537.36 (KHTML, like Gecko) Chrome/92.0.4515.131 Safari/537.36",WebKit,Chrome,92.0.4515.131,Windows,10.0,5f461dd6c139dd6b46c7596cbd57cd79
218,1,"""","""","""","""","""",sampler,96,156494,0.0-6.0-90.0,"""","""","""","""","""","""","""","""","""","""","""","""","2021-08-17 18:03:37",89.152.99.100,"Mozilla/5.0 (Windows NT 10.0; Win64; x64) AppleWebKit/537.36 (KHTML, like Gecko) Chrome/92.0.4515.131 Safari/537.36",WebKit,Chrome,92.0.4515.131,Windows,10.0,5f461dd6c139dd6b46c7596cbd57cd79
218,1,"""","""","""","""","""",sampler,97,156494,0.0-6.0-91.0,"""","""","""","""","""","""","""","""","""","""","""","""","2021-08-17 18:03:37",89.152.99.100,"Mozilla/5.0 (Windows NT 10.0; Win64; x64) AppleWebKit/537.36 (KHTML, like Gecko) Chrome/92.0.4515.131 Safari/537.36",WebKit,Chrome,92.0.4515.131,Windows,10.0,5f461dd6c139dd6b46c7596cbd57cd79
218,1,"""","""","""","""","""",sampler,98,156494,0.0-6.0-92.0,"""","""","""","""","""","""","""","""","""","""","""","""","2021-08-17 18:03:37",89.152.99.100,"Mozilla/5.0 (Windows NT 10.0; Win64; x64) AppleWebKit/537.36 (KHTML, like Gecko) Chrome/92.0.4515.131 Safari/537.36",WebKit,Chrome,92.0.4515.131,Windows,10.0,5f461dd6c139dd6b46c7596cbd57cd79
218,1,"""","""","""","""","""",sampler,99,156494,0.0-6.0-93.0,"""","""","""","""","""","""","""","""","""","""","""","""","2021-08-17 18:03:37",89.152.99.100,"Mozilla/5.0 (Windows NT 10.0; Win64; x64) AppleWebKit/537.36 (KHTML, like Gecko) Chrome/92.0.4515.131 Safari/537.36",WebKit,Chrome,92.0.4515.131,Windows,10.0,5f461dd6c139dd6b46c7596cbd57cd79
218,1,"""","""","""","""","""",sampler,100,156494,0.0-6.0-94.0,"""","""","""","""","""","""","""","""","""","""","""","""","2021-08-17 18:03:37",89.152.99.100,"Mozilla/5.0 (Windows NT 10.0; Win64; x64) AppleWebKit/537.36 (KHTML, like Gecko) Chrome/92.0.4515.131 Safari/537.36",WebKit,Chrome,92.0.4515.131,Windows,10.0,5f461dd6c139dd6b46c7596cbd57cd79
218,1,"""","""","""","""","""",sampler,101,156495,0.0-6.0-95.0,"""","""","""","""","""","""","""","""","""","""","""","""","2021-08-17 18:03:37",89.152.99.100,"Mozilla/5.0 (Windows NT 10.0; Win64; x64) AppleWebKit/537.36 (KHTML, like Gecko) Chrome/92.0.4515.131 Safari/537.36",WebKit,Chrome,92.0.4515.131,Windows,10.0,5f461dd6c139dd6b46c7596cbd57cd79
218,1,"""","""","""","""","""",sampler,102,156495,0.0-6.0-96.0,"""","""","""","""","""","""","""","""","""","""","""","""","2021-08-17 18:03:37",89.152.99.100,"Mozilla/5.0 (Windows NT 10.0; Win64; x64) AppleWebKit/537.36 (KHTML, like Gecko) Chrome/92.0.4515.131 Safari/537.36",WebKit,Chrome,92.0.4515.131,Windows,10.0,5f461dd6c139dd6b46c7596cbd57cd79
218,1,"""","""","""","""","""",sampler,103,156495,0.0-6.0-97.0,"""","""","""","""","""","""","""","""","""","""","""","""","2021-08-17 18:03:37",89.152.99.100,"Mozilla/5.0 (Windows NT 10.0; Win64; x64) AppleWebKit/537.36 (KHTML, like Gecko) Chrome/92.0.4515.131 Safari/537.36",WebKit,Chrome,92.0.4515.131,Windows,10.0,5f461dd6c139dd6b46c7596cbd57cd79
218,1,"""","""","""","""","""",sampler,104,156495,0.0-6.0-98.0,"""","""","""","""","""","""","""","""","""","""","""","""","2021-08-17 18:03:37",89.152.99.100,"Mozilla/5.0 (Windows NT 10.0; Win64; x64) AppleWebKit/537.36 (KHTML, like Gecko) Chrome/92.0.4515.131 Safari/537.36",WebKit,Chrome,92.0.4515.131,Windows,10.0,5f461dd6c139dd6b46c7596cbd57cd79
218,1,"""","""","""","""","""",sampler,105,156495,0.0-6.0-99.0,"""","""","""","""","""","""","""","""","""","""","""","""","2021-08-17 18:03:37",89.152.99.100,"Mozilla/5.0 (Windows NT 10.0; Win64; x64) AppleWebKit/537.36 (KHTML, like Gecko) Chrome/92.0.4515.131 Safari/537.36",WebKit,Chrome,92.0.4515.131,Windows,10.0,5f461dd6c139dd6b46c7596cbd57cd79
218,1,"""","""","""","""","""",sampler,106,156495,0.0-6.0-100.0,"""","""","""","""","""","""","""","""","""","""","""","""","2021-08-17 18:03:37",89.152.99.100,"Mozilla/5.0 (Windows NT 10.0; Win64; x64) AppleWebKit/537.36 (KHTML, like Gecko) Chrome/92.0.4515.131 Safari/537.36",WebKit,Chrome,92.0.4515.131,Windows,10.0,5f461dd6c139dd6b46c7596cbd57cd79
218,1,"""","""","""","""","""",sampler,107,156495,0.0-6.0-101.0,"""","""","""","""","""","""","""","""","""","""","""","""","2021-08-17 18:03:37",89.152.99.100,"Mozilla/5.0 (Windows NT 10.0; Win64; x64) AppleWebKit/537.36 (KHTML, like Gecko) Chrome/92.0.4515.131 Safari/537.36",WebKit,Chrome,92.0.4515.131,Windows,10.0,5f461dd6c139dd6b46c7596cbd57cd79
218,1,"""","""","""","""","""",sampler,108,156495,0.0-6.0-102.0,"""","""","""","""","""","""","""","""","""","""","""","""","2021-08-17 18:03:37",89.152.99.100,"Mozilla/5.0 (Windows NT 10.0; Win64; x64) AppleWebKit/537.36 (KHTML, like Gecko) Chrome/92.0.4515.131 Safari/537.36",WebKit,Chrome,92.0.4515.131,Windows,10.0,5f461dd6c139dd6b46c7596cbd57cd79
218,1,"""","""","""","""","""",sampler,109,156496,0.0-6.0-103.0,"""","""","""","""","""","""","""","""","""","""","""","""","2021-08-17 18:03:37",89.152.99.100,"Mozilla/5.0 (Windows NT 10.0; Win64; x64) AppleWebKit/537.36 (KHTML, like Gecko) Chrome/92.0.4515.131 Safari/537.36",WebKit,Chrome,92.0.4515.131,Windows,10.0,5f461dd6c139dd6b46c7596cbd57cd79
218,1,"""","""","""","""","""",sampler,110,156496,0.0-6.0-104.0,"""","""","""","""","""","""","""","""","""","""","""","""","2021-08-17 18:03:37",89.152.99.100,"Mozilla/5.0 (Windows NT 10.0; Win64; x64) AppleWebKit/537.36 (KHTML, like Gecko) Chrome/92.0.4515.131 Safari/537.36",WebKit,Chrome,92.0.4515.131,Windows,10.0,5f461dd6c139dd6b46c7596cbd57cd79
218,1,"""","""","""","""","""",sampler,111,156496,0.0-6.0-105.0,"""","""","""","""","""","""","""","""","""","""","""","""","2021-08-17 18:03:37",89.152.99.100,"Mozilla/5.0 (Windows NT 10.0; Win64; x64) AppleWebKit/537.36 (KHTML, like Gecko) Chrome/92.0.4515.131 Safari/537.36",WebKit,Chrome,92.0.4515.131,Windows,10.0,5f461dd6c139dd6b46c7596cbd57cd79
218,1,"""","""","""","""","""",sampler,112,156496,0.0-6.0-106.0,"""","""","""","""","""","""","""","""","""","""","""","""","2021-08-17 18:03:37",89.152.99.100,"Mozilla/5.0 (Windows NT 10.0; Win64; x64) AppleWebKit/537.36 (KHTML, like Gecko) Chrome/92.0.4515.131 Safari/537.36",WebKit,Chrome,92.0.4515.131,Windows,10.0,5f461dd6c139dd6b46c7596cbd57cd79
218,1,"""","""","""","""","""",sampler,113,156496,0.0-6.0-107.0,"""","""","""","""","""","""","""","""","""","""","""","""","2021-08-17 18:03:37",89.152.99.100,"Mozilla/5.0 (Windows NT 10.0; Win64; x64) AppleWebKit/537.36 (KHTML, like Gecko) Chrome/92.0.4515.131 Safari/537.36",WebKit,Chrome,92.0.4515.131,Windows,10.0,5f461dd6c139dd6b46c7596cbd57cd79
218,1,"""","""","""","""","""",sampler,114,156496,0.0-6.0-108.0,"""","""","""","""","""","""","""","""","""","""","""","""","2021-08-17 18:03:37",89.152.99.100,"Mozilla/5.0 (Windows NT 10.0; Win64; x64) AppleWebKit/537.36 (KHTML, like Gecko) Chrome/92.0.4515.131 Safari/537.36",WebKit,Chrome,92.0.4515.131,Windows,10.0,5f461dd6c139dd6b46c7596cbd57cd79
218,1,"""","""","""","""","""",sampler,115,156496,0.0-6.0-109.0,"""","""","""","""","""","""","""","""","""","""","""","""","2021-08-17 18:03:37",89.152.99.100,"Mozilla/5.0 (Windows NT 10.0; Win64; x64) AppleWebKit/537.36 (KHTML, like Gecko) Chrome/92.0.4515.131 Safari/537.36",WebKit,Chrome,92.0.4515.131,Windows,10.0,5f461dd6c139dd6b46c7596cbd57cd79
218,1,"""","""","""","""","""",sampler,116,156496,0.0-6.0-110.0,"""","""","""","""","""","""","""","""","""","""","""","""","2021-08-17 18:03:37",89.152.99.100,"Mozilla/5.0 (Windows NT 10.0; Win64; x64) AppleWebKit/537.36 (KHTML, like Gecko) Chrome/92.0.4515.131 Safari/537.36",WebKit,Chrome,92.0.4515.131,Windows,10.0,5f461dd6c139dd6b46c7596cbd57cd79
218,1,"""","""","""","""","""",sampler,117,156497,0.0-6.0-111.0,"""","""","""","""","""","""","""","""","""","""","""","""","2021-08-17 18:03:37",89.152.99.100,"Mozilla/5.0 (Windows NT 10.0; Win64; x64) AppleWebKit/537.36 (KHTML, like Gecko) Chrome/92.0.4515.131 Safari/537.36",WebKit,Chrome,92.0.4515.131,Windows,10.0,5f461dd6c139dd6b46c7596cbd57cd79
218,1,"""","""","""","""","""",sampler,118,156497,0.0-6.0-112.0,"""","""","""","""","""","""","""","""","""","""","""","""","2021-08-17 18:03:37",89.152.99.100,"Mozilla/5.0 (Windows NT 10.0; Win64; x64) AppleWebKit/537.36 (KHTML, like Gecko) Chrome/92.0.4515.131 Safari/537.36",WebKit,Chrome,92.0.4515.131,Windows,10.0,5f461dd6c139dd6b46c7596cbd57cd79
218,1,"""","""","""","""","""",sampler,119,156497,0.0-6.0-113.0,"""","""","""","""","""","""","""","""","""","""","""","""","2021-08-17 18:03:37",89.152.99.100,"Mozilla/5.0 (Windows NT 10.0; Win64; x64) AppleWebKit/537.36 (KHTML, like Gecko) Chrome/92.0.4515.131 Safari/537.36",WebKit,Chrome,92.0.4515.131,Windows,10.0,5f461dd6c139dd6b46c7596cbd57cd79
218,1,"""","""","""","""","""",sampler,120,156497,0.0-6.0-114.0,"""","""","""","""","""","""","""","""","""","""","""","""","2021-08-17 18:03:37",89.152.99.100,"Mozilla/5.0 (Windows NT 10.0; Win64; x64) AppleWebKit/537.36 (KHTML, like Gecko) Chrome/92.0.4515.131 Safari/537.36",WebKit,Chrome,92.0.4515.131,Windows,10.0,5f461dd6c139dd6b46c7596cbd57cd79
218,1,"""","""","""","""","""",sampler,121,156497,0.0-6.0-115.0,"""","""","""","""","""","""","""","""","""","""","""","""","2021-08-17 18:03:37",89.152.99.100,"Mozilla/5.0 (Windows NT 10.0; Win64; x64) AppleWebKit/537.36 (KHTML, like Gecko) Chrome/92.0.4515.131 Safari/537.36",WebKit,Chrome,92.0.4515.131,Windows,10.0,5f461dd6c139dd6b46c7596cbd57cd79
218,1,"""","""","""","""","""",sampler,122,156497,0.0-6.0-116.0,"""","""","""","""","""","""","""","""","""","""","""","""","2021-08-17 18:03:37",89.152.99.100,"Mozilla/5.0 (Windows NT 10.0; Win64; x64) AppleWebKit/537.36 (KHTML, like Gecko) Chrome/92.0.4515.131 Safari/537.36",WebKit,Chrome,92.0.4515.131,Windows,10.0,5f461dd6c139dd6b46c7596cbd57cd79
218,1,"""","""","""","""","""",sampler,123,156497,0.0-6.0-117.0,"""","""","""","""","""","""","""","""","""","""","""","""","2021-08-17 18:03:37",89.152.99.100,"Mozilla/5.0 (Windows NT 10.0; Win64; x64) AppleWebKit/537.36 (KHTML, like Gecko) Chrome/92.0.4515.131 Safari/537.36",WebKit,Chrome,92.0.4515.131,Windows,10.0,5f461dd6c139dd6b46c7596cbd57cd79
218,1,"""","""","""","""","""",sampler,124,156497,0.0-6.0-118.0,"""","""","""","""","""","""","""","""","""","""","""","""","2021-08-17 18:03:37",89.152.99.100,"Mozilla/5.0 (Windows NT 10.0; Win64; x64) AppleWebKit/537.36 (KHTML, like Gecko) Chrome/92.0.4515.131 Safari/537.36",WebKit,Chrome,92.0.4515.131,Windows,10.0,5f461dd6c139dd6b46c7596cbd57cd79
218,1,"""","""","""","""","""",sampler,125,156498,0.0-6.0-119.0,"""","""","""","""","""","""","""","""","""","""","""","""","2021-08-17 18:03:37",89.152.99.100,"Mozilla/5.0 (Windows NT 10.0; Win64; x64) AppleWebKit/537.36 (KHTML, like Gecko) Chrome/92.0.4515.131 Safari/537.36",WebKit,Chrome,92.0.4515.131,Windows,10.0,5f461dd6c139dd6b46c7596cbd57cd79
218,1,"""","""","""","""","""",sampler,126,156498,0.0-6.0-120.0,"""","""","""","""","""","""","""","""","""","""","""","""","2021-08-17 18:03:37",89.152.99.100,"Mozilla/5.0 (Windows NT 10.0; Win64; x64) AppleWebKit/537.36 (KHTML, like Gecko) Chrome/92.0.4515.131 Safari/537.36",WebKit,Chrome,92.0.4515.131,Windows,10.0,5f461dd6c139dd6b46c7596cbd57cd79
218,1,"""","""","""","""","""",sampler,127,156498,0.0-6.0-121.0,"""","""","""","""","""","""","""","""","""","""","""","""","2021-08-17 18:03:37",89.152.99.100,"Mozilla/5.0 (Windows NT 10.0; Win64; x64) AppleWebKit/537.36 (KHTML, like Gecko) Chrome/92.0.4515.131 Safari/537.36",WebKit,Chrome,92.0.4515.131,Windows,10.0,5f461dd6c139dd6b46c7596cbd57cd79
218,1,"""","""","""","""","""",sampler,128,156498,0.0-6.0-122.0,"""","""","""","""","""","""","""","""","""","""","""","""","2021-08-17 18:03:37",89.152.99.100,"Mozilla/5.0 (Windows NT 10.0; Win64; x64) AppleWebKit/537.36 (KHTML, like Gecko) Chrome/92.0.4515.131 Safari/537.36",WebKit,Chrome,92.0.4515.131,Windows,10.0,5f461dd6c139dd6b46c7596cbd57cd79
218,1,"""","""","""","""","""",sampler,129,156498,0.0-6.0-123.0,"""","""","""","""","""","""","""","""","""","""","""","""","2021-08-17 18:03:37",89.152.99.100,"Mozilla/5.0 (Windows NT 10.0; Win64; x64) AppleWebKit/537.36 (KHTML, like Gecko) Chrome/92.0.4515.131 Safari/537.36",WebKit,Chrome,92.0.4515.131,Windows,10.0,5f461dd6c139dd6b46c7596cbd57cd79
218,1,"""","""","""","""","""",sampler,130,156498,0.0-6.0-124.0,"""","""","""","""","""","""","""","""","""","""","""","""","2021-08-17 18:03:37",89.152.99.100,"Mozilla/5.0 (Windows NT 10.0; Win64; x64) AppleWebKit/537.36 (KHTML, like Gecko) Chrome/92.0.4515.131 Safari/537.36",WebKit,Chrome,92.0.4515.131,Windows,10.0,5f461dd6c139dd6b46c7596cbd57cd79
218,1,"""","""","""","""","""",sampler,131,156498,0.0-6.0-125.0,"""","""","""","""","""","""","""","""","""","""","""","""","2021-08-17 18:03:37",89.152.99.100,"Mozilla/5.0 (Windows NT 10.0; Win64; x64) AppleWebKit/537.36 (KHTML, like Gecko) Chrome/92.0.4515.131 Safari/537.36",WebKit,Chrome,92.0.4515.131,Windows,10.0,5f461dd6c139dd6b46c7596cbd57cd79
218,1,"""","""","""","""","""",sampler,132,156498,0.0-6.0-126.0,"""","""","""","""","""","""","""","""","""","""","""","""","2021-08-17 18:03:37",89.152.99.100,"Mozilla/5.0 (Windows NT 10.0; Win64; x64) AppleWebKit/537.36 (KHTML, like Gecko) Chrome/92.0.4515.131 Safari/537.36",WebKit,Chrome,92.0.4515.131,Windows,10.0,5f461dd6c139dd6b46c7596cbd57cd79
218,1,"""","""","""","""","""",sampler,133,156498,0.0-6.0-127.0,"""","""","""","""","""","""","""","""","""","""","""","""","2021-08-17 18:03:37",89.152.99.100,"Mozilla/5.0 (Windows NT 10.0; Win64; x64) AppleWebKit/537.36 (KHTML, like Gecko) Chrome/92.0.4515.131 Safari/537.36",WebKit,Chrome,92.0.4515.131,Windows,10.0,5f461dd6c139dd6b46c7596cbd57cd79
218,1,"""","""","""","""","""",sampler,134,156499,0.0-6.0-128.0,"""","""","""","""","""","""","""","""","""","""","""","""","2021-08-17 18:03:37",89.152.99.100,"Mozilla/5.0 (Windows NT 10.0; Win64; x64) AppleWebKit/537.36 (KHTML, like Gecko) Chrome/92.0.4515.131 Safari/537.36",WebKit,Chrome,92.0.4515.131,Windows,10.0,5f461dd6c139dd6b46c7596cbd57cd79
218,1,"""","""","""","""","""",sampler,135,156499,0.0-6.0-129.0,"""","""","""","""","""","""","""","""","""","""","""","""","2021-08-17 18:03:37",89.152.99.100,"Mozilla/5.0 (Windows NT 10.0; Win64; x64) AppleWebKit/537.36 (KHTML, like Gecko) Chrome/92.0.4515.131 Safari/537.36",WebKit,Chrome,92.0.4515.131,Windows,10.0,5f461dd6c139dd6b46c7596cbd57cd79
218,1,"""","""","""","""","""",sampler,136,156499,0.0-6.0-130.0,"""","""","""","""","""","""","""","""","""","""","""","""","2021-08-17 18:03:37",89.152.99.100,"Mozilla/5.0 (Windows NT 10.0; Win64; x64) AppleWebKit/537.36 (KHTML, like Gecko) Chrome/92.0.4515.131 Safari/537.36",WebKit,Chrome,92.0.4515.131,Windows,10.0,5f461dd6c139dd6b46c7596cbd57cd79
218,1,"""","""","""","""","""",sampler,137,156499,0.0-6.0-131.0,"""","""","""","""","""","""","""","""","""","""","""","""","2021-08-17 18:03:37",89.152.99.100,"Mozilla/5.0 (Windows NT 10.0; Win64; x64) AppleWebKit/537.36 (KHTML, like Gecko) Chrome/92.0.4515.131 Safari/537.36",WebKit,Chrome,92.0.4515.131,Windows,10.0,5f461dd6c139dd6b46c7596cbd57cd79
218,1,"""","""","""","""","""",sampler,138,156499,0.0-6.0-132.0,"""","""","""","""","""","""","""","""","""","""","""","""","2021-08-17 18:03:37",89.152.99.100,"Mozilla/5.0 (Windows NT 10.0; Win64; x64) AppleWebKit/537.36 (KHTML, like Gecko) Chrome/92.0.4515.131 Safari/537.36",WebKit,Chrome,92.0.4515.131,Windows,10.0,5f461dd6c139dd6b46c7596cbd57cd79
218,1,"""","""","""","""","""",sampler,139,156499,0.0-6.0-133.0,"""","""","""","""","""","""","""","""","""","""","""","""","2021-08-17 18:03:37",89.152.99.100,"Mozilla/5.0 (Windows NT 10.0; Win64; x64) AppleWebKit/537.36 (KHTML, like Gecko) Chrome/92.0.4515.131 Safari/537.36",WebKit,Chrome,92.0.4515.131,Windows,10.0,5f461dd6c139dd6b46c7596cbd57cd79
218,1,"""","""","""","""","""",sampler,140,156499,0.0-6.0-134.0,"""","""","""","""","""","""","""","""","""","""","""","""","2021-08-17 18:03:37",89.152.99.100,"Mozilla/5.0 (Windows NT 10.0; Win64; x64) AppleWebKit/537.36 (KHTML, like Gecko) Chrome/92.0.4515.131 Safari/537.36",WebKit,Chrome,92.0.4515.131,Windows,10.0,5f461dd6c139dd6b46c7596cbd57cd79
218,1,"""","""","""","""","""",sampler,141,156499,0.0-6.0-135.0,"""","""","""","""","""","""","""","""","""","""","""","""","2021-08-17 18:03:37",89.152.99.100,"Mozilla/5.0 (Windows NT 10.0; Win64; x64) AppleWebKit/537.36 (KHTML, like Gecko) Chrome/92.0.4515.131 Safari/537.36",WebKit,Chrome,92.0.4515.131,Windows,10.0,5f461dd6c139dd6b46c7596cbd57cd79
218,1,"""","""","""","""","""",sampler,142,156499,0.0-6.0-136.0,"""","""","""","""","""","""","""","""","""","""","""","""","2021-08-17 18:03:37",89.152.99.100,"Mozilla/5.0 (Windows NT 10.0; Win64; x64) AppleWebKit/537.36 (KHTML, like Gecko) Chrome/92.0.4515.131 Safari/537.36",WebKit,Chrome,92.0.4515.131,Windows,10.0,5f461dd6c139dd6b46c7596cbd57cd79
218,1,"""","""","""","""","""",sampler,143,156499,0.0-6.0-137.0,"""","""","""","""","""","""","""","""","""","""","""","""","2021-08-17 18:03:37",89.152.99.100,"Mozilla/5.0 (Windows NT 10.0; Win64; x64) AppleWebKit/537.36 (KHTML, like Gecko) Chrome/92.0.4515.131 Safari/537.36",WebKit,Chrome,92.0.4515.131,Windows,10.0,5f461dd6c139dd6b46c7596cbd57cd79
218,1,"""","""","""","""","""",sampler,144,156500,0.0-6.0-138.0,"""","""","""","""","""","""","""","""","""","""","""","""","2021-08-17 18:03:37",89.152.99.100,"Mozilla/5.0 (Windows NT 10.0; Win64; x64) AppleWebKit/537.36 (KHTML, like Gecko) Chrome/92.0.4515.131 Safari/537.36",WebKit,Chrome,92.0.4515.131,Windows,10.0,5f461dd6c139dd6b46c7596cbd57cd79
218,1,"""","""","""","""","""",sampler,145,156501,0.0-6.0-139.0,"""","""","""","""","""","""","""","""","""","""","""","""","2021-08-17 18:03:37",89.152.99.100,"Mozilla/5.0 (Windows NT 10.0; Win64; x64) AppleWebKit/537.36 (KHTML, like Gecko) Chrome/92.0.4515.131 Safari/537.36",WebKit,Chrome,92.0.4515.131,Windows,10.0,5f461dd6c139dd6b46c7596cbd57cd79
218,1,"""","""","""","""","""",sampler,146,156501,0.0-6.0-140.0,"""","""","""","""","""","""","""","""","""","""","""","""","2021-08-17 18:03:37",89.152.99.100,"Mozilla/5.0 (Windows NT 10.0; Win64; x64) AppleWebKit/537.36 (KHTML, like Gecko) Chrome/92.0.4515.131 Safari/537.36",WebKit,Chrome,92.0.4515.131,Windows,10.0,5f461dd6c139dd6b46c7596cbd57cd79
218,1,"""","""","""","""","""",sampler,147,156501,0.0-6.0-141.0,"""","""","""","""","""","""","""","""","""","""","""","""","2021-08-17 18:03:37",89.152.99.100,"Mozilla/5.0 (Windows NT 10.0; Win64; x64) AppleWebKit/537.36 (KHTML, like Gecko) Chrome/92.0.4515.131 Safari/537.36",WebKit,Chrome,92.0.4515.131,Windows,10.0,5f461dd6c139dd6b46c7596cbd57cd79
218,1,"""","""","""","""","""",sampler,148,156501,0.0-6.0-142.0,"""","""","""","""","""","""","""","""","""","""","""","""","2021-08-17 18:03:37",89.152.99.100,"Mozilla/5.0 (Windows NT 10.0; Win64; x64) AppleWebKit/537.36 (KHTML, like Gecko) Chrome/92.0.4515.131 Safari/537.36",WebKit,Chrome,92.0.4515.131,Windows,10.0,5f461dd6c139dd6b46c7596cbd57cd79
218,1,"""","""","""","""","""",sampler,149,156501,0.0-6.0-143.0,"""","""","""","""","""","""","""","""","""","""","""","""","2021-08-17 18:03:37",89.152.99.100,"Mozilla/5.0 (Windows NT 10.0; Win64; x64) AppleWebKit/537.36 (KHTML, like Gecko) Chrome/92.0.4515.131 Safari/537.36",WebKit,Chrome,92.0.4515.131,Windows,10.0,5f461dd6c139dd6b46c7596cbd57cd79
218,1,"""","""","""","""","""",sampler,150,156501,0.0-6.0-144.0,"""","""","""","""","""","""","""","""","""","""","""","""","2021-08-17 18:03:37",89.152.99.100,"Mozilla/5.0 (Windows NT 10.0; Win64; x64) AppleWebKit/537.36 (KHTML, like Gecko) Chrome/92.0.4515.131 Safari/537.36",WebKit,Chrome,92.0.4515.131,Windows,10.0,5f461dd6c139dd6b46c7596cbd57cd79
218,1,"""","""","""","""","""",sampler,151,156501,0.0-6.0-145.0,"""","""","""","""","""","""","""","""","""","""","""","""","2021-08-17 18:03:37",89.152.99.100,"Mozilla/5.0 (Windows NT 10.0; Win64; x64) AppleWebKit/537.36 (KHTML, like Gecko) Chrome/92.0.4515.131 Safari/537.36",WebKit,Chrome,92.0.4515.131,Windows,10.0,5f461dd6c139dd6b46c7596cbd57cd79
218,1,"""","""","""","""","""",sampler,152,156502,0.0-6.0-146.0,"""","""","""","""","""","""","""","""","""","""","""","""","2021-08-17 18:03:37",89.152.99.100,"Mozilla/5.0 (Windows NT 10.0; Win64; x64) AppleWebKit/537.36 (KHTML, like Gecko) Chrome/92.0.4515.131 Safari/537.36",WebKit,Chrome,92.0.4515.131,Windows,10.0,5f461dd6c139dd6b46c7596cbd57cd79
218,1,"""","""","""","""","""",sampler,153,156502,0.0-6.0-147.0,"""","""","""","""","""","""","""","""","""","""","""","""","2021-08-17 18:03:37",89.152.99.100,"Mozilla/5.0 (Windows NT 10.0; Win64; x64) AppleWebKit/537.36 (KHTML, like Gecko) Chrome/92.0.4515.131 Safari/537.36",WebKit,Chrome,92.0.4515.131,Windows,10.0,5f461dd6c139dd6b46c7596cbd57cd79
218,1,"""","""","""","""","""",sampler,154,156502,0.0-6.0-148.0,"""","""","""","""","""","""","""","""","""","""","""","""","2021-08-17 18:03:37",89.152.99.100,"Mozilla/5.0 (Windows NT 10.0; Win64; x64) AppleWebKit/537.36 (KHTML, like Gecko) Chrome/92.0.4515.131 Safari/537.36",WebKit,Chrome,92.0.4515.131,Windows,10.0,5f461dd6c139dd6b46c7596cbd57cd79
218,1,"""","""","""","""","""",sampler,155,156502,0.0-6.0-149.0,"""","""","""","""","""","""","""","""","""","""","""","""","2021-08-17 18:03:37",89.152.99.100,"Mozilla/5.0 (Windows NT 10.0; Win64; x64) AppleWebKit/537.36 (KHTML, like Gecko) Chrome/92.0.4515.131 Safari/537.36",WebKit,Chrome,92.0.4515.131,Windows,10.0,5f461dd6c139dd6b46c7596cbd57cd79
218,1,"""","""","""","""","""",sampler,156,156502,0.0-6.0-150.0,"""","""","""","""","""","""","""","""","""","""","""","""","2021-08-17 18:03:37",89.152.99.100,"Mozilla/5.0 (Windows NT 10.0; Win64; x64) AppleWebKit/537.36 (KHTML, like Gecko) Chrome/92.0.4515.131 Safari/537.36",WebKit,Chrome,92.0.4515.131,Windows,10.0,5f461dd6c139dd6b46c7596cbd57cd79
218,1,"""","""","""","""","""",sampler,157,156502,0.0-6.0-151.0,"""","""","""","""","""","""","""","""","""","""","""","""","2021-08-17 18:03:37",89.152.99.100,"Mozilla/5.0 (Windows NT 10.0; Win64; x64) AppleWebKit/537.36 (KHTML, like Gecko) Chrome/92.0.4515.131 Safari/537.36",WebKit,Chrome,92.0.4515.131,Windows,10.0,5f461dd6c139dd6b46c7596cbd57cd79
218,1,"""","""","""","""","""",sampler,158,156502,0.0-6.0-152.0,"""","""","""","""","""","""","""","""","""","""","""","""","2021-08-17 18:03:37",89.152.99.100,"Mozilla/5.0 (Windows NT 10.0; Win64; x64) AppleWebKit/537.36 (KHTML, like Gecko) Chrome/92.0.4515.131 Safari/537.36",WebKit,Chrome,92.0.4515.131,Windows,10.0,5f461dd6c139dd6b46c7596cbd57cd79
218,1,"""","""","""","""","""",sampler,159,156503,0.0-6.0-153.0,"""","""","""","""","""","""","""","""","""","""","""","""","2021-08-17 18:03:37",89.152.99.100,"Mozilla/5.0 (Windows NT 10.0; Win64; x64) AppleWebKit/537.36 (KHTML, like Gecko) Chrome/92.0.4515.131 Safari/537.36",WebKit,Chrome,92.0.4515.131,Windows,10.0,5f461dd6c139dd6b46c7596cbd57cd79
218,1,"""","""","""","""","""",sampler,160,156503,0.0-6.0-154.0,"""","""","""","""","""","""","""","""","""","""","""","""","2021-08-17 18:03:37",89.152.99.100,"Mozilla/5.0 (Windows NT 10.0; Win64; x64) AppleWebKit/537.36 (KHTML, like Gecko) Chrome/92.0.4515.131 Safari/537.36",WebKit,Chrome,92.0.4515.131,Windows,10.0,5f461dd6c139dd6b46c7596cbd57cd79
218,1,"""","""","""","""","""",sampler,161,156503,0.0-6.0-155.0,"""","""","""","""","""","""","""","""","""","""","""","""","2021-08-17 18:03:37",89.152.99.100,"Mozilla/5.0 (Windows NT 10.0; Win64; x64) AppleWebKit/537.36 (KHTML, like Gecko) Chrome/92.0.4515.131 Safari/537.36",WebKit,Chrome,92.0.4515.131,Windows,10.0,5f461dd6c139dd6b46c7596cbd57cd79
218,1,"""","""","""","""","""",sampler,162,156503,0.0-6.0-156.0,"""","""","""","""","""","""","""","""","""","""","""","""","2021-08-17 18:03:37",89.152.99.100,"Mozilla/5.0 (Windows NT 10.0; Win64; x64) AppleWebKit/537.36 (KHTML, like Gecko) Chrome/92.0.4515.131 Safari/537.36",WebKit,Chrome,92.0.4515.131,Windows,10.0,5f461dd6c139dd6b46c7596cbd57cd79
218,1,"""","""","""","""","""",sampler,163,156503,0.0-6.0-157.0,"""","""","""","""","""","""","""","""","""","""","""","""","2021-08-17 18:03:37",89.152.99.100,"Mozilla/5.0 (Windows NT 10.0; Win64; x64) AppleWebKit/537.36 (KHTML, like Gecko) Chrome/92.0.4515.131 Safari/537.36",WebKit,Chrome,92.0.4515.131,Windows,10.0,5f461dd6c139dd6b46c7596cbd57cd79
218,1,"""","""","""","""","""",sampler,164,156503,0.0-6.0-158.0,"""","""","""","""","""","""","""","""","""","""","""","""","2021-08-17 18:03:37",89.152.99.100,"Mozilla/5.0 (Windows NT 10.0; Win64; x64) AppleWebKit/537.36 (KHTML, like Gecko) Chrome/92.0.4515.131 Safari/537.36",WebKit,Chrome,92.0.4515.131,Windows,10.0,5f461dd6c139dd6b46c7596cbd57cd79
218,1,"""","""","""","""","""",sampler,165,156503,0.0-6.0-159.0,"""","""","""","""","""","""","""","""","""","""","""","""","2021-08-17 18:03:37",89.152.99.100,"Mozilla/5.0 (Windows NT 10.0; Win64; x64) AppleWebKit/537.36 (KHTML, like Gecko) Chrome/92.0.4515.131 Safari/537.36",WebKit,Chrome,92.0.4515.131,Windows,10.0,5f461dd6c139dd6b46c7596cbd57cd79
218,1,"""","""","""","""","""",sampler,166,156503,0.0-6.0-160.0,"""","""","""","""","""","""","""","""","""","""","""","""","2021-08-17 18:03:37",89.152.99.100,"Mozilla/5.0 (Windows NT 10.0; Win64; x64) AppleWebKit/537.36 (KHTML, like Gecko) Chrome/92.0.4515.131 Safari/537.36",WebKit,Chrome,92.0.4515.131,Windows,10.0,5f461dd6c139dd6b46c7596cbd57cd79
218,1,"""","""","""","""","""",sampler,167,156504,0.0-6.0-161.0,"""","""","""","""","""","""","""","""","""","""","""","""","2021-08-17 18:03:37",89.152.99.100,"Mozilla/5.0 (Windows NT 10.0; Win64; x64) AppleWebKit/537.36 (KHTML, like Gecko) Chrome/92.0.4515.131 Safari/537.36",WebKit,Chrome,92.0.4515.131,Windows,10.0,5f461dd6c139dd6b46c7596cbd57cd79
218,1,"""","""","""","""","""",sampler,168,156504,0.0-6.0-162.0,"""","""","""","""","""","""","""","""","""","""","""","""","2021-08-17 18:03:37",89.152.99.100,"Mozilla/5.0 (Windows NT 10.0; Win64; x64) AppleWebKit/537.36 (KHTML, like Gecko) Chrome/92.0.4515.131 Safari/537.36",WebKit,Chrome,92.0.4515.131,Windows,10.0,5f461dd6c139dd6b46c7596cbd57cd79
218,1,"""","""","""","""","""",sampler,169,156504,0.0-6.0-163.0,"""","""","""","""","""","""","""","""","""","""","""","""","2021-08-17 18:03:37",89.152.99.100,"Mozilla/5.0 (Windows NT 10.0; Win64; x64) AppleWebKit/537.36 (KHTML, like Gecko) Chrome/92.0.4515.131 Safari/537.36",WebKit,Chrome,92.0.4515.131,Windows,10.0,5f461dd6c139dd6b46c7596cbd57cd79
218,1,"""","""","""","""","""",sampler,170,156504,0.0-6.0-164.0,"""","""","""","""","""","""","""","""","""","""","""","""","2021-08-17 18:03:37",89.152.99.100,"Mozilla/5.0 (Windows NT 10.0; Win64; x64) AppleWebKit/537.36 (KHTML, like Gecko) Chrome/92.0.4515.131 Safari/537.36",WebKit,Chrome,92.0.4515.131,Windows,10.0,5f461dd6c139dd6b46c7596cbd57cd79
218,1,"""","""","""","""","""",sampler,171,156504,0.0-6.0-165.0,"""","""","""","""","""","""","""","""","""","""","""","""","2021-08-17 18:03:37",89.152.99.100,"Mozilla/5.0 (Windows NT 10.0; Win64; x64) AppleWebKit/537.36 (KHTML, like Gecko) Chrome/92.0.4515.131 Safari/537.36",WebKit,Chrome,92.0.4515.131,Windows,10.0,5f461dd6c139dd6b46c7596cbd57cd79
218,1,"""","""","""","""","""",sampler,172,156504,0.0-6.0-166.0,"""","""","""","""","""","""","""","""","""","""","""","""","2021-08-17 18:03:37",89.152.99.100,"Mozilla/5.0 (Windows NT 10.0; Win64; x64) AppleWebKit/537.36 (KHTML, like Gecko) Chrome/92.0.4515.131 Safari/537.36",WebKit,Chrome,92.0.4515.131,Windows,10.0,5f461dd6c139dd6b46c7596cbd57cd79
218,1,"""","""","""","""","""",sampler,173,156504,0.0-6.0-167.0,"""","""","""","""","""","""","""","""","""","""","""","""","2021-08-17 18:03:37",89.152.99.100,"Mozilla/5.0 (Windows NT 10.0; Win64; x64) AppleWebKit/537.36 (KHTML, like Gecko) Chrome/92.0.4515.131 Safari/537.36",WebKit,Chrome,92.0.4515.131,Windows,10.0,5f461dd6c139dd6b46c7596cbd57cd79
218,1,"""","""","""","""","""",sampler,174,156504,0.0-6.0-168.0,"""","""","""","""","""","""","""","""","""","""","""","""","2021-08-17 18:03:37",89.152.99.100,"Mozilla/5.0 (Windows NT 10.0; Win64; x64) AppleWebKit/537.36 (KHTML, like Gecko) Chrome/92.0.4515.131 Safari/537.36",WebKit,Chrome,92.0.4515.131,Windows,10.0,5f461dd6c139dd6b46c7596cbd57cd79
218,1,"""","""","""","""","""",sampler,175,156504,0.0-6.0-169.0,"""","""","""","""","""","""","""","""","""","""","""","""","2021-08-17 18:03:37",89.152.99.100,"Mozilla/5.0 (Windows NT 10.0; Win64; x64) AppleWebKit/537.36 (KHTML, like Gecko) Chrome/92.0.4515.131 Safari/537.36",WebKit,Chrome,92.0.4515.131,Windows,10.0,5f461dd6c139dd6b46c7596cbd57cd79
218,1,"""","""","""","""","""",sampler,176,156504,0.0-6.0-170.0,"""","""","""","""","""","""","""","""","""","""","""","""","2021-08-17 18:03:37",89.152.99.100,"Mozilla/5.0 (Windows NT 10.0; Win64; x64) AppleWebKit/537.36 (KHTML, like Gecko) Chrome/92.0.4515.131 Safari/537.36",WebKit,Chrome,92.0.4515.131,Windows,10.0,5f461dd6c139dd6b46c7596cbd57cd79
218,1,"""","""","""","""","""",sampler,177,156505,0.0-6.0-171.0,"""","""","""","""","""","""","""","""","""","""","""","""","2021-08-17 18:03:37",89.152.99.100,"Mozilla/5.0 (Windows NT 10.0; Win64; x64) AppleWebKit/537.36 (KHTML, like Gecko) Chrome/92.0.4515.131 Safari/537.36",WebKit,Chrome,92.0.4515.131,Windows,10.0,5f461dd6c139dd6b46c7596cbd57cd79
218,1,"""","""","""","""","""",sampler,178,156505,0.0-6.0-172.0,"""","""","""","""","""","""","""","""","""","""","""","""","2021-08-17 18:03:37",89.152.99.100,"Mozilla/5.0 (Windows NT 10.0; Win64; x64) AppleWebKit/537.36 (KHTML, like Gecko) Chrome/92.0.4515.131 Safari/537.36",WebKit,Chrome,92.0.4515.131,Windows,10.0,5f461dd6c139dd6b46c7596cbd57cd79
218,1,"""","""","""","""","""",sampler,179,156505,0.0-6.0-173.0,"""","""","""","""","""","""","""","""","""","""","""","""","2021-08-17 18:03:37",89.152.99.100,"Mozilla/5.0 (Windows NT 10.0; Win64; x64) AppleWebKit/537.36 (KHTML, like Gecko) Chrome/92.0.4515.131 Safari/537.36",WebKit,Chrome,92.0.4515.131,Windows,10.0,5f461dd6c139dd6b46c7596cbd57cd79
218,1,"""","""","""","""","""",sampler,180,156505,0.0-6.0-174.0,"""","""","""","""","""","""","""","""","""","""","""","""","2021-08-17 18:03:37",89.152.99.100,"Mozilla/5.0 (Windows NT 10.0; Win64; x64) AppleWebKit/537.36 (KHTML, like Gecko) Chrome/92.0.4515.131 Safari/537.36",WebKit,Chrome,92.0.4515.131,Windows,10.0,5f461dd6c139dd6b46c7596cbd57cd79
218,1,"""","""","""","""","""",sampler,181,156505,0.0-6.0-175.0,"""","""","""","""","""","""","""","""","""","""","""","""","2021-08-17 18:03:37",89.152.99.100,"Mozilla/5.0 (Windows NT 10.0; Win64; x64) AppleWebKit/537.36 (KHTML, like Gecko) Chrome/92.0.4515.131 Safari/537.36",WebKit,Chrome,92.0.4515.131,Windows,10.0,5f461dd6c139dd6b46c7596cbd57cd79
218,1,"""","""","""","""","""",sampler,182,156505,0.0-6.0-176.0,"""","""","""","""","""","""","""","""","""","""","""","""","2021-08-17 18:03:37",89.152.99.100,"Mozilla/5.0 (Windows NT 10.0; Win64; x64) AppleWebKit/537.36 (KHTML, like Gecko) Chrome/92.0.4515.131 Safari/537.36",WebKit,Chrome,92.0.4515.131,Windows,10.0,5f461dd6c139dd6b46c7596cbd57cd79
218,1,"""","""","""","""","""",sampler,183,156505,0.0-6.0-177.0,"""","""","""","""","""","""","""","""","""","""","""","""","2021-08-17 18:03:37",89.152.99.100,"Mozilla/5.0 (Windows NT 10.0; Win64; x64) AppleWebKit/537.36 (KHTML, like Gecko) Chrome/92.0.4515.131 Safari/537.36",WebKit,Chrome,92.0.4515.131,Windows,10.0,5f461dd6c139dd6b46c7596cbd57cd79
218,1,"""","""","""","""","""",sampler,184,156505,0.0-6.0-178.0,"""","""","""","""","""","""","""","""","""","""","""","""","2021-08-17 18:03:37",89.152.99.100,"Mozilla/5.0 (Windows NT 10.0; Win64; x64) AppleWebKit/537.36 (KHTML, like Gecko) Chrome/92.0.4515.131 Safari/537.36",WebKit,Chrome,92.0.4515.131,Windows,10.0,5f461dd6c139dd6b46c7596cbd57cd79
218,1,"""","""","""","""","""",sampler,185,156505,0.0-6.0-179.0,"""","""","""","""","""","""","""","""","""","""","""","""","2021-08-17 18:03:37",89.152.99.100,"Mozilla/5.0 (Windows NT 10.0; Win64; x64) AppleWebKit/537.36 (KHTML, like Gecko) Chrome/92.0.4515.131 Safari/537.36",WebKit,Chrome,92.0.4515.131,Windows,10.0,5f461dd6c139dd6b46c7596cbd57cd79
218,1,"""","""","""","""","""",sampler,186,156506,0.0-6.0-180.0,"""","""","""","""","""","""","""","""","""","""","""","""","2021-08-17 18:03:37",89.152.99.100,"Mozilla/5.0 (Windows NT 10.0; Win64; x64) AppleWebKit/537.36 (KHTML, like Gecko) Chrome/92.0.4515.131 Safari/537.36",WebKit,Chrome,92.0.4515.131,Windows,10.0,5f461dd6c139dd6b46c7596cbd57cd79
218,1,"""","""","""","""","""",sampler,187,156506,0.0-6.0-181.0,"""","""","""","""","""","""","""","""","""","""","""","""","2021-08-17 18:03:37",89.152.99.100,"Mozilla/5.0 (Windows NT 10.0; Win64; x64) AppleWebKit/537.36 (KHTML, like Gecko) Chrome/92.0.4515.131 Safari/537.36",WebKit,Chrome,92.0.4515.131,Windows,10.0,5f461dd6c139dd6b46c7596cbd57cd79
218,1,"""","""","""","""","""",sampler,188,156506,0.0-6.0-182.0,"""","""","""","""","""","""","""","""","""","""","""","""","2021-08-17 18:03:37",89.152.99.100,"Mozilla/5.0 (Windows NT 10.0; Win64; x64) AppleWebKit/537.36 (KHTML, like Gecko) Chrome/92.0.4515.131 Safari/537.36",WebKit,Chrome,92.0.4515.131,Windows,10.0,5f461dd6c139dd6b46c7596cbd57cd79
218,1,"""","""","""","""","""",sampler,189,156506,0.0-6.0-183.0,"""","""","""","""","""","""","""","""","""","""","""","""","2021-08-17 18:03:37",89.152.99.100,"Mozilla/5.0 (Windows NT 10.0; Win64; x64) AppleWebKit/537.36 (KHTML, like Gecko) Chrome/92.0.4515.131 Safari/537.36",WebKit,Chrome,92.0.4515.131,Windows,10.0,5f461dd6c139dd6b46c7596cbd57cd79
218,1,"""","""","""","""","""",sampler,190,156506,0.0-6.0-184.0,"""","""","""","""","""","""","""","""","""","""","""","""","2021-08-17 18:03:37",89.152.99.100,"Mozilla/5.0 (Windows NT 10.0; Win64; x64) AppleWebKit/537.36 (KHTML, like Gecko) Chrome/92.0.4515.131 Safari/537.36",WebKit,Chrome,92.0.4515.131,Windows,10.0,5f461dd6c139dd6b46c7596cbd57cd79
218,1,"""","""","""","""","""",sampler,191,156506,0.0-6.0-185.0,"""","""","""","""","""","""","""","""","""","""","""","""","2021-08-17 18:03:37",89.152.99.100,"Mozilla/5.0 (Windows NT 10.0; Win64; x64) AppleWebKit/537.36 (KHTML, like Gecko) Chrome/92.0.4515.131 Safari/537.36",WebKit,Chrome,92.0.4515.131,Windows,10.0,5f461dd6c139dd6b46c7596cbd57cd79
218,1,"""","""","""","""","""",sampler,192,156506,0.0-6.0-186.0,"""","""","""","""","""","""","""","""","""","""","""","""","2021-08-17 18:03:37",89.152.99.100,"Mozilla/5.0 (Windows NT 10.0; Win64; x64) AppleWebKit/537.36 (KHTML, like Gecko) Chrome/92.0.4515.131 Safari/537.36",WebKit,Chrome,92.0.4515.131,Windows,10.0,5f461dd6c139dd6b46c7596cbd57cd79
218,1,"""","""","""","""","""",sampler,193,156506,0.0-6.0-187.0,"""","""","""","""","""","""","""","""","""","""","""","""","2021-08-17 18:03:37",89.152.99.100,"Mozilla/5.0 (Windows NT 10.0; Win64; x64) AppleWebKit/537.36 (KHTML, like Gecko) Chrome/92.0.4515.131 Safari/537.36",WebKit,Chrome,92.0.4515.131,Windows,10.0,5f461dd6c139dd6b46c7596cbd57cd79
218,1,"""","""","""","""","""",sampler,194,156506,0.0-6.0-188.0,"""","""","""","""","""","""","""","""","""","""","""","""","2021-08-17 18:03:37",89.152.99.100,"Mozilla/5.0 (Windows NT 10.0; Win64; x64) AppleWebKit/537.36 (KHTML, like Gecko) Chrome/92.0.4515.131 Safari/537.36",WebKit,Chrome,92.0.4515.131,Windows,10.0,5f461dd6c139dd6b46c7596cbd57cd79
218,1,"""","""","""","""","""",sampler,195,156507,0.0-6.0-189.0,"""","""","""","""","""","""","""","""","""","""","""","""","2021-08-17 18:03:37",89.152.99.100,"Mozilla/5.0 (Windows NT 10.0; Win64; x64) AppleWebKit/537.36 (KHTML, like Gecko) Chrome/92.0.4515.131 Safari/537.36",WebKit,Chrome,92.0.4515.131,Windows,10.0,5f461dd6c139dd6b46c7596cbd57cd79
218,1,"""","""","""","""","""",sampler,196,156507,0.0-6.0-190.0,"""","""","""","""","""","""","""","""","""","""","""","""","2021-08-17 18:03:37",89.152.99.100,"Mozilla/5.0 (Windows NT 10.0; Win64; x64) AppleWebKit/537.36 (KHTML, like Gecko) Chrome/92.0.4515.131 Safari/537.36",WebKit,Chrome,92.0.4515.131,Windows,10.0,5f461dd6c139dd6b46c7596cbd57cd79
218,1,"""","""","""","""","""",sampler,197,156507,0.0-6.0-191.0,"""","""","""","""","""","""","""","""","""","""","""","""","2021-08-17 18:03:37",89.152.99.100,"Mozilla/5.0 (Windows NT 10.0; Win64; x64) AppleWebKit/537.36 (KHTML, like Gecko) Chrome/92.0.4515.131 Safari/537.36",WebKit,Chrome,92.0.4515.131,Windows,10.0,5f461dd6c139dd6b46c7596cbd57cd79
218,1,"""","""","""","""","""",sampler,198,156507,0.0-6.0-192.0,"""","""","""","""","""","""","""","""","""","""","""","""","2021-08-17 18:03:37",89.152.99.100,"Mozilla/5.0 (Windows NT 10.0; Win64; x64) AppleWebKit/537.36 (KHTML, like Gecko) Chrome/92.0.4515.131 Safari/537.36",WebKit,Chrome,92.0.4515.131,Windows,10.0,5f461dd6c139dd6b46c7596cbd57cd79
218,1,"""","""","""","""","""",sampler,199,156507,0.0-6.0-193.0,"""","""","""","""","""","""","""","""","""","""","""","""","2021-08-17 18:03:37",89.152.99.100,"Mozilla/5.0 (Windows NT 10.0; Win64; x64) AppleWebKit/537.36 (KHTML, like Gecko) Chrome/92.0.4515.131 Safari/537.36",WebKit,Chrome,92.0.4515.131,Windows,10.0,5f461dd6c139dd6b46c7596cbd57cd79
218,1,"""","""","""","""","""",sampler,200,156507,0.0-6.0-194.0,"""","""","""","""","""","""","""","""","""","""","""","""","2021-08-17 18:03:37",89.152.99.100,"Mozilla/5.0 (Windows NT 10.0; Win64; x64) AppleWebKit/537.36 (KHTML, like Gecko) Chrome/92.0.4515.131 Safari/537.36",WebKit,Chrome,92.0.4515.131,Windows,10.0,5f461dd6c139dd6b46c7596cbd57cd79
218,1,"""","""","""","""","""",sampler,201,156507,0.0-6.0-195.0,"""","""","""","""","""","""","""","""","""","""","""","""","2021-08-17 18:03:37",89.152.99.100,"Mozilla/5.0 (Windows NT 10.0; Win64; x64) AppleWebKit/537.36 (KHTML, like Gecko) Chrome/92.0.4515.131 Safari/537.36",WebKit,Chrome,92.0.4515.131,Windows,10.0,5f461dd6c139dd6b46c7596cbd57cd79
218,1,"""","""","""","""","""",sampler,202,156507,0.0-6.0-196.0,"""","""","""","""","""","""","""","""","""","""","""","""","2021-08-17 18:03:37",89.152.99.100,"Mozilla/5.0 (Windows NT 10.0; Win64; x64) AppleWebKit/537.36 (KHTML, like Gecko) Chrome/92.0.4515.131 Safari/537.36",WebKit,Chrome,92.0.4515.131,Windows,10.0,5f461dd6c139dd6b46c7596cbd57cd79
218,1,"""","""","""","""","""",sampler,203,156507,0.0-6.0-197.0,"""","""","""","""","""","""","""","""","""","""","""","""","2021-08-17 18:03:37",89.152.99.100,"Mozilla/5.0 (Windows NT 10.0; Win64; x64) AppleWebKit/537.36 (KHTML, like Gecko) Chrome/92.0.4515.131 Safari/537.36",WebKit,Chrome,92.0.4515.131,Windows,10.0,5f461dd6c139dd6b46c7596cbd57cd79
218,1,"""","""","""","""","""",sampler,204,156508,0.0-6.0-198.0,"""","""","""","""","""","""","""","""","""","""","""","""","2021-08-17 18:03:37",89.152.99.100,"Mozilla/5.0 (Windows NT 10.0; Win64; x64) AppleWebKit/537.36 (KHTML, like Gecko) Chrome/92.0.4515.131 Safari/537.36",WebKit,Chrome,92.0.4515.131,Windows,10.0,5f461dd6c139dd6b46c7596cbd57cd79
218,1,"""","""","""","""","""",sampler,205,156508,0.0-6.0-199.0,"""","""","""","""","""","""","""","""","""","""","""","""","2021-08-17 18:03:37",89.152.99.100,"Mozilla/5.0 (Windows NT 10.0; Win64; x64) AppleWebKit/537.36 (KHTML, like Gecko) Chrome/92.0.4515.131 Safari/537.36",WebKit,Chrome,92.0.4515.131,Windows,10.0,5f461dd6c139dd6b46c7596cbd57cd79
218,1,"""","""","""","""","""",sampler,206,156508,0.0-6.0-200.0,"""","""","""","""","""","""","""","""","""","""","""","""","2021-08-17 18:03:37",89.152.99.100,"Mozilla/5.0 (Windows NT 10.0; Win64; x64) AppleWebKit/537.36 (KHTML, like Gecko) Chrome/92.0.4515.131 Safari/537.36",WebKit,Chrome,92.0.4515.131,Windows,10.0,5f461dd6c139dd6b46c7596cbd57cd79
218,1,"""","""","""","""","""",sampler,207,156508,0.0-6.0-201.0,"""","""","""","""","""","""","""","""","""","""","""","""","2021-08-17 18:03:37",89.152.99.100,"Mozilla/5.0 (Windows NT 10.0; Win64; x64) AppleWebKit/537.36 (KHTML, like Gecko) Chrome/92.0.4515.131 Safari/537.36",WebKit,Chrome,92.0.4515.131,Windows,10.0,5f461dd6c139dd6b46c7596cbd57cd79
218,1,"""","""","""","""","""",sampler,208,156508,0.0-6.0-202.0,"""","""","""","""","""","""","""","""","""","""","""","""","2021-08-17 18:03:37",89.152.99.100,"Mozilla/5.0 (Windows NT 10.0; Win64; x64) AppleWebKit/537.36 (KHTML, like Gecko) Chrome/92.0.4515.131 Safari/537.36",WebKit,Chrome,92.0.4515.131,Windows,10.0,5f461dd6c139dd6b46c7596cbd57cd79
218,1,"""","""","""","""","""",sampler,209,156508,0.0-6.0-203.0,"""","""","""","""","""","""","""","""","""","""","""","""","2021-08-17 18:03:37",89.152.99.100,"Mozilla/5.0 (Windows NT 10.0; Win64; x64) AppleWebKit/537.36 (KHTML, like Gecko) Chrome/92.0.4515.131 Safari/537.36",WebKit,Chrome,92.0.4515.131,Windows,10.0,5f461dd6c139dd6b46c7596cbd57cd79
218,1,"""","""","""","""","""",sampler,210,156508,0.0-6.0-204.0,"""","""","""","""","""","""","""","""","""","""","""","""","2021-08-17 18:03:37",89.152.99.100,"Mozilla/5.0 (Windows NT 10.0; Win64; x64) AppleWebKit/537.36 (KHTML, like Gecko) Chrome/92.0.4515.131 Safari/537.36",WebKit,Chrome,92.0.4515.131,Windows,10.0,5f461dd6c139dd6b46c7596cbd57cd79
218,1,"""","""","""","""","""",sampler,211,156508,0.0-6.0-205.0,"""","""","""","""","""","""","""","""","""","""","""","""","2021-08-17 18:03:37",89.152.99.100,"Mozilla/5.0 (Windows NT 10.0; Win64; x64) AppleWebKit/537.36 (KHTML, like Gecko) Chrome/92.0.4515.131 Safari/537.36",WebKit,Chrome,92.0.4515.131,Windows,10.0,5f461dd6c139dd6b46c7596cbd57cd79
218,1,"""","""","""","""","""",sampler,212,156508,0.0-6.0-206.0,"""","""","""","""","""","""","""","""","""","""","""","""","2021-08-17 18:03:37",89.152.99.100,"Mozilla/5.0 (Windows NT 10.0; Win64; x64) AppleWebKit/537.36 (KHTML, like Gecko) Chrome/92.0.4515.131 Safari/537.36",WebKit,Chrome,92.0.4515.131,Windows,10.0,5f461dd6c139dd6b46c7596cbd57cd79
218,1,"""","""","""","""","""",sampler,213,156509,0.0-6.0-207.0,"""","""","""","""","""","""","""","""","""","""","""","""","2021-08-17 18:03:37",89.152.99.100,"Mozilla/5.0 (Windows NT 10.0; Win64; x64) AppleWebKit/537.36 (KHTML, like Gecko) Chrome/92.0.4515.131 Safari/537.36",WebKit,Chrome,92.0.4515.131,Windows,10.0,5f461dd6c139dd6b46c7596cbd57cd79
218,1,"""","""","""","""","""",sampler,214,156509,0.0-6.0-208.0,"""","""","""","""","""","""","""","""","""","""","""","""","2021-08-17 18:03:37",89.152.99.100,"Mozilla/5.0 (Windows NT 10.0; Win64; x64) AppleWebKit/537.36 (KHTML, like Gecko) Chrome/92.0.4515.131 Safari/537.36",WebKit,Chrome,92.0.4515.131,Windows,10.0,5f461dd6c139dd6b46c7596cbd57cd79
218,1,"""","""","""","""","""",sampler,215,156509,0.0-6.0-209.0,"""","""","""","""","""","""","""","""","""","""","""","""","2021-08-17 18:03:37",89.152.99.100,"Mozilla/5.0 (Windows NT 10.0; Win64; x64) AppleWebKit/537.36 (KHTML, like Gecko) Chrome/92.0.4515.131 Safari/537.36",WebKit,Chrome,92.0.4515.131,Windows,10.0,5f461dd6c139dd6b46c7596cbd57cd79
218,1,"""","""","""","""","""",sampler,216,156509,0.0-6.0-210.0,"""","""","""","""","""","""","""","""","""","""","""","""","2021-08-17 18:03:37",89.152.99.100,"Mozilla/5.0 (Windows NT 10.0; Win64; x64) AppleWebKit/537.36 (KHTML, like Gecko) Chrome/92.0.4515.131 Safari/537.36",WebKit,Chrome,92.0.4515.131,Windows,10.0,5f461dd6c139dd6b46c7596cbd57cd79
218,1,"""","""","""","""","""",sampler,217,156509,0.0-6.0-211.0,"""","""","""","""","""","""","""","""","""","""","""","""","2021-08-17 18:03:37",89.152.99.100,"Mozilla/5.0 (Windows NT 10.0; Win64; x64) AppleWebKit/537.36 (KHTML, like Gecko) Chrome/92.0.4515.131 Safari/537.36",WebKit,Chrome,92.0.4515.131,Windows,10.0,5f461dd6c139dd6b46c7596cbd57cd79
218,1,"""","""","""","""","""",sampler,218,156509,0.0-6.0-212.0,"""","""","""","""","""","""","""","""","""","""","""","""","2021-08-17 18:03:37",89.152.99.100,"Mozilla/5.0 (Windows NT 10.0; Win64; x64) AppleWebKit/537.36 (KHTML, like Gecko) Chrome/92.0.4515.131 Safari/537.36",WebKit,Chrome,92.0.4515.131,Windows,10.0,5f461dd6c139dd6b46c7596cbd57cd79
218,1,"""","""","""","""","""",sampler,219,156509,0.0-6.0-213.0,"""","""","""","""","""","""","""","""","""","""","""","""","2021-08-17 18:03:37",89.152.99.100,"Mozilla/5.0 (Windows NT 10.0; Win64; x64) AppleWebKit/537.36 (KHTML, like Gecko) Chrome/92.0.4515.131 Safari/537.36",WebKit,Chrome,92.0.4515.131,Windows,10.0,5f461dd6c139dd6b46c7596cbd57cd79
218,1,"""","""","""","""","""",sampler,220,156509,0.0-6.0-214.0,"""","""","""","""","""","""","""","""","""","""","""","""","2021-08-17 18:03:37",89.152.99.100,"Mozilla/5.0 (Windows NT 10.0; Win64; x64) AppleWebKit/537.36 (KHTML, like Gecko) Chrome/92.0.4515.131 Safari/537.36",WebKit,Chrome,92.0.4515.131,Windows,10.0,5f461dd6c139dd6b46c7596cbd57cd79
218,1,"""","""","""","""","""",sampler,221,156509,0.0-6.0-215.0,"""","""","""","""","""","""","""","""","""","""","""","""","2021-08-17 18:03:37",89.152.99.100,"Mozilla/5.0 (Windows NT 10.0; Win64; x64) AppleWebKit/537.36 (KHTML, like Gecko) Chrome/92.0.4515.131 Safari/537.36",WebKit,Chrome,92.0.4515.131,Windows,10.0,5f461dd6c139dd6b46c7596cbd57cd79
218,1,"""","""","""","""","""",sampler,222,156509,0.0-6.0-216.0,"""","""","""","""","""","""","""","""","""","""","""","""","2021-08-17 18:03:37",89.152.99.100,"Mozilla/5.0 (Windows NT 10.0; Win64; x64) AppleWebKit/537.36 (KHTML, like Gecko) Chrome/92.0.4515.131 Safari/537.36",WebKit,Chrome,92.0.4515.131,Windows,10.0,5f461dd6c139dd6b46c7596cbd57cd79
218,1,"""","""","""","""","""",sampler,223,156510,0.0-6.0-217.0,"""","""","""","""","""","""","""","""","""","""","""","""","2021-08-17 18:03:37",89.152.99.100,"Mozilla/5.0 (Windows NT 10.0; Win64; x64) AppleWebKit/537.36 (KHTML, like Gecko) Chrome/92.0.4515.131 Safari/537.36",WebKit,Chrome,92.0.4515.131,Windows,10.0,5f461dd6c139dd6b46c7596cbd57cd79
218,1,"""","""","""","""","""",sampler,224,156510,0.0-6.0-218.0,"""","""","""","""","""","""","""","""","""","""","""","""","2021-08-17 18:03:37",89.152.99.100,"Mozilla/5.0 (Windows NT 10.0; Win64; x64) AppleWebKit/537.36 (KHTML, like Gecko) Chrome/92.0.4515.131 Safari/537.36",WebKit,Chrome,92.0.4515.131,Windows,10.0,5f461dd6c139dd6b46c7596cbd57cd79
218,1,"""","""","""","""","""",sampler,225,156510,0.0-6.0-219.0,"""","""","""","""","""","""","""","""","""","""","""","""","2021-08-17 18:03:37",89.152.99.100,"Mozilla/5.0 (Windows NT 10.0; Win64; x64) AppleWebKit/537.36 (KHTML, like Gecko) Chrome/92.0.4515.131 Safari/537.36",WebKit,Chrome,92.0.4515.131,Windows,10.0,5f461dd6c139dd6b46c7596cbd57cd79
218,1,"""","""","""","""","""",sampler,226,156510,0.0-6.0-220.0,"""","""","""","""","""","""","""","""","""","""","""","""","2021-08-17 18:03:37",89.152.99.100,"Mozilla/5.0 (Windows NT 10.0; Win64; x64) AppleWebKit/537.36 (KHTML, like Gecko) Chrome/92.0.4515.131 Safari/537.36",WebKit,Chrome,92.0.4515.131,Windows,10.0,5f461dd6c139dd6b46c7596cbd57cd79
218,1,"""","""","""","""","""",sampler,227,156510,0.0-6.0-221.0,"""","""","""","""","""","""","""","""","""","""","""","""","2021-08-17 18:03:37",89.152.99.100,"Mozilla/5.0 (Windows NT 10.0; Win64; x64) AppleWebKit/537.36 (KHTML, like Gecko) Chrome/92.0.4515.131 Safari/537.36",WebKit,Chrome,92.0.4515.131,Windows,10.0,5f461dd6c139dd6b46c7596cbd57cd79
218,1,"""","""","""","""","""",sampler,228,156510,0.0-6.0-222.0,"""","""","""","""","""","""","""","""","""","""","""","""","2021-08-17 18:03:37",89.152.99.100,"Mozilla/5.0 (Windows NT 10.0; Win64; x64) AppleWebKit/537.36 (KHTML, like Gecko) Chrome/92.0.4515.131 Safari/537.36",WebKit,Chrome,92.0.4515.131,Windows,10.0,5f461dd6c139dd6b46c7596cbd57cd79
218,1,"""","""","""","""","""",sampler,229,156511,0.0-6.0-223.0,"""","""","""","""","""","""","""","""","""","""","""","""","2021-08-17 18:03:37",89.152.99.100,"Mozilla/5.0 (Windows NT 10.0; Win64; x64) AppleWebKit/537.36 (KHTML, like Gecko) Chrome/92.0.4515.131 Safari/537.36",WebKit,Chrome,92.0.4515.131,Windows,10.0,5f461dd6c139dd6b46c7596cbd57cd79
218,1,"""","""","""","""","""",sampler,230,156511,0.0-6.0-224.0,"""","""","""","""","""","""","""","""","""","""","""","""","2021-08-17 18:03:37",89.152.99.100,"Mozilla/5.0 (Windows NT 10.0; Win64; x64) AppleWebKit/537.36 (KHTML, like Gecko) Chrome/92.0.4515.131 Safari/537.36",WebKit,Chrome,92.0.4515.131,Windows,10.0,5f461dd6c139dd6b46c7596cbd57cd79
218,1,"""","""","""","""","""",sampler,231,156511,0.0-6.0-225.0,"""","""","""","""","""","""","""","""","""","""","""","""","2021-08-17 18:03:37",89.152.99.100,"Mozilla/5.0 (Windows NT 10.0; Win64; x64) AppleWebKit/537.36 (KHTML, like Gecko) Chrome/92.0.4515.131 Safari/537.36",WebKit,Chrome,92.0.4515.131,Windows,10.0,5f461dd6c139dd6b46c7596cbd57cd79
218,1,"""","""","""","""","""",sampler,232,156512,0.0-6.0-226.0,"""","""","""","""","""","""","""","""","""","""","""","""","2021-08-17 18:03:37",89.152.99.100,"Mozilla/5.0 (Windows NT 10.0; Win64; x64) AppleWebKit/537.36 (KHTML, like Gecko) Chrome/92.0.4515.131 Safari/537.36",WebKit,Chrome,92.0.4515.131,Windows,10.0,5f461dd6c139dd6b46c7596cbd57cd79
218,1,"""","""","""","""","""",sampler,233,156512,0.0-6.0-227.0,"""","""","""","""","""","""","""","""","""","""","""","""","2021-08-17 18:03:37",89.152.99.100,"Mozilla/5.0 (Windows NT 10.0; Win64; x64) AppleWebKit/537.36 (KHTML, like Gecko) Chrome/92.0.4515.131 Safari/537.36",WebKit,Chrome,92.0.4515.131,Windows,10.0,5f461dd6c139dd6b46c7596cbd57cd79
218,1,"""","""","""","""","""",sampler,234,156512,0.0-6.0-228.0,"""","""","""","""","""","""","""","""","""","""","""","""","2021-08-17 18:03:37",89.152.99.100,"Mozilla/5.0 (Windows NT 10.0; Win64; x64) AppleWebKit/537.36 (KHTML, like Gecko) Chrome/92.0.4515.131 Safari/537.36",WebKit,Chrome,92.0.4515.131,Windows,10.0,5f461dd6c139dd6b46c7596cbd57cd79
218,1,"""","""","""","""","""",sampler,235,156512,0.0-6.0-229.0,"""","""","""","""","""","""","""","""","""","""","""","""","2021-08-17 18:03:37",89.152.99.100,"Mozilla/5.0 (Windows NT 10.0; Win64; x64) AppleWebKit/537.36 (KHTML, like Gecko) Chrome/92.0.4515.131 Safari/537.36",WebKit,Chrome,92.0.4515.131,Windows,10.0,5f461dd6c139dd6b46c7596cbd57cd79
218,1,"""","""","""","""","""",sampler,236,156512,0.0-6.0-230.0,"""","""","""","""","""","""","""","""","""","""","""","""","2021-08-17 18:03:37",89.152.99.100,"Mozilla/5.0 (Windows NT 10.0; Win64; x64) AppleWebKit/537.36 (KHTML, like Gecko) Chrome/92.0.4515.131 Safari/537.36",WebKit,Chrome,92.0.4515.131,Windows,10.0,5f461dd6c139dd6b46c7596cbd57cd79
218,1,"""","""","""","""","""",sampler,237,156512,0.0-6.0-231.0,"""","""","""","""","""","""","""","""","""","""","""","""","2021-08-17 18:03:37",89.152.99.100,"Mozilla/5.0 (Windows NT 10.0; Win64; x64) AppleWebKit/537.36 (KHTML, like Gecko) Chrome/92.0.4515.131 Safari/537.36",WebKit,Chrome,92.0.4515.131,Windows,10.0,5f461dd6c139dd6b46c7596cbd57cd79
218,1,"""","""","""","""","""",sampler,238,156512,0.0-6.0-232.0,"""","""","""","""","""","""","""","""","""","""","""","""","2021-08-17 18:03:37",89.152.99.100,"Mozilla/5.0 (Windows NT 10.0; Win64; x64) AppleWebKit/537.36 (KHTML, like Gecko) Chrome/92.0.4515.131 Safari/537.36",WebKit,Chrome,92.0.4515.131,Windows,10.0,5f461dd6c139dd6b46c7596cbd57cd79
218,1,"""","""","""","""","""",sampler,239,156513,0.0-6.0-233.0,"""","""","""","""","""","""","""","""","""","""","""","""","2021-08-17 18:03:37",89.152.99.100,"Mozilla/5.0 (Windows NT 10.0; Win64; x64) AppleWebKit/537.36 (KHTML, like Gecko) Chrome/92.0.4515.131 Safari/537.36",WebKit,Chrome,92.0.4515.131,Windows,10.0,5f461dd6c139dd6b46c7596cbd57cd79
218,1,"""","""","""","""","""",sampler,240,156513,0.0-6.0-234.0,"""","""","""","""","""","""","""","""","""","""","""","""","2021-08-17 18:03:37",89.152.99.100,"Mozilla/5.0 (Windows NT 10.0; Win64; x64) AppleWebKit/537.36 (KHTML, like Gecko) Chrome/92.0.4515.131 Safari/537.36",WebKit,Chrome,92.0.4515.131,Windows,10.0,5f461dd6c139dd6b46c7596cbd57cd79
218,1,"""","""","""","""","""",sampler,241,156513,0.0-6.0-235.0,"""","""","""","""","""","""","""","""","""","""","""","""","2021-08-17 18:03:37",89.152.99.100,"Mozilla/5.0 (Windows NT 10.0; Win64; x64) AppleWebKit/537.36 (KHTML, like Gecko) Chrome/92.0.4515.131 Safari/537.36",WebKit,Chrome,92.0.4515.131,Windows,10.0,5f461dd6c139dd6b46c7596cbd57cd79
218,1,"""","""","""","""","""",sampler,242,156513,0.0-6.0-236.0,"""","""","""","""","""","""","""","""","""","""","""","""","2021-08-17 18:03:37",89.152.99.100,"Mozilla/5.0 (Windows NT 10.0; Win64; x64) AppleWebKit/537.36 (KHTML, like Gecko) Chrome/92.0.4515.131 Safari/537.36",WebKit,Chrome,92.0.4515.131,Windows,10.0,5f461dd6c139dd6b46c7596cbd57cd79
218,1,"""","""","""","""","""",sampler,243,156513,0.0-6.0-237.0,"""","""","""","""","""","""","""","""","""","""","""","""","2021-08-17 18:03:37",89.152.99.100,"Mozilla/5.0 (Windows NT 10.0; Win64; x64) AppleWebKit/537.36 (KHTML, like Gecko) Chrome/92.0.4515.131 Safari/537.36",WebKit,Chrome,92.0.4515.131,Windows,10.0,5f461dd6c139dd6b46c7596cbd57cd79
218,1,"""","""","""","""","""",sampler,244,156513,0.0-6.0-238.0,"""","""","""","""","""","""","""","""","""","""","""","""","2021-08-17 18:03:37",89.152.99.100,"Mozilla/5.0 (Windows NT 10.0; Win64; x64) AppleWebKit/537.36 (KHTML, like Gecko) Chrome/92.0.4515.131 Safari/537.36",WebKit,Chrome,92.0.4515.131,Windows,10.0,5f461dd6c139dd6b46c7596cbd57cd79
218,1,"""","""","""","""","""",sampler,245,156513,0.0-6.0-239.0,"""","""","""","""","""","""","""","""","""","""","""","""","2021-08-17 18:03:37",89.152.99.100,"Mozilla/5.0 (Windows NT 10.0; Win64; x64) AppleWebKit/537.36 (KHTML, like Gecko) Chrome/92.0.4515.131 Safari/537.36",WebKit,Chrome,92.0.4515.131,Windows,10.0,5f461dd6c139dd6b46c7596cbd57cd79
218,1,"""","""","""","""","""",sampler,246,156513,0.0-6.0-240.0,"""","""","""","""","""","""","""","""","""","""","""","""","2021-08-17 18:03:37",89.152.99.100,"Mozilla/5.0 (Windows NT 10.0; Win64; x64) AppleWebKit/537.36 (KHTML, like Gecko) Chrome/92.0.4515.131 Safari/537.36",WebKit,Chrome,92.0.4515.131,Windows,10.0,5f461dd6c139dd6b46c7596cbd57cd79
218,1,"""","""","""","""","""",sampler,247,156514,0.0-6.0-241.0,"""","""","""","""","""","""","""","""","""","""","""","""","2021-08-17 18:03:37",89.152.99.100,"Mozilla/5.0 (Windows NT 10.0; Win64; x64) AppleWebKit/537.36 (KHTML, like Gecko) Chrome/92.0.4515.131 Safari/537.36",WebKit,Chrome,92.0.4515.131,Windows,10.0,5f461dd6c139dd6b46c7596cbd57cd79
218,1,"""","""","""","""","""",sampler,248,156514,0.0-6.0-242.0,"""","""","""","""","""","""","""","""","""","""","""","""","2021-08-17 18:03:37",89.152.99.100,"Mozilla/5.0 (Windows NT 10.0; Win64; x64) AppleWebKit/537.36 (KHTML, like Gecko) Chrome/92.0.4515.131 Safari/537.36",WebKit,Chrome,92.0.4515.131,Windows,10.0,5f461dd6c139dd6b46c7596cbd57cd79
218,1,"""","""","""","""","""",sampler,249,156514,0.0-6.0-243.0,"""","""","""","""","""","""","""","""","""","""","""","""","2021-08-17 18:03:37",89.152.99.100,"Mozilla/5.0 (Windows NT 10.0; Win64; x64) AppleWebKit/537.36 (KHTML, like Gecko) Chrome/92.0.4515.131 Safari/537.36",WebKit,Chrome,92.0.4515.131,Windows,10.0,5f461dd6c139dd6b46c7596cbd57cd79
218,1,"""","""","""","""","""",sampler,250,156514,0.0-6.0-244.0,"""","""","""","""","""","""","""","""","""","""","""","""","2021-08-17 18:03:37",89.152.99.100,"Mozilla/5.0 (Windows NT 10.0; Win64; x64) AppleWebKit/537.36 (KHTML, like Gecko) Chrome/92.0.4515.131 Safari/537.36",WebKit,Chrome,92.0.4515.131,Windows,10.0,5f461dd6c139dd6b46c7596cbd57cd79
218,1,"""","""","""","""","""",sampler,251,156514,0.0-6.0-245.0,"""","""","""","""","""","""","""","""","""","""","""","""","2021-08-17 18:03:37",89.152.99.100,"Mozilla/5.0 (Windows NT 10.0; Win64; x64) AppleWebKit/537.36 (KHTML, like Gecko) Chrome/92.0.4515.131 Safari/537.36",WebKit,Chrome,92.0.4515.131,Windows,10.0,5f461dd6c139dd6b46c7596cbd57cd79
218,1,"""","""","""","""","""",sampler,252,156514,0.0-6.0-246.0,"""","""","""","""","""","""","""","""","""","""","""","""","2021-08-17 18:03:37",89.152.99.100,"Mozilla/5.0 (Windows NT 10.0; Win64; x64) AppleWebKit/537.36 (KHTML, like Gecko) Chrome/92.0.4515.131 Safari/537.36",WebKit,Chrome,92.0.4515.131,Windows,10.0,5f461dd6c139dd6b46c7596cbd57cd79
218,1,"""","""","""","""","""",sampler,253,156514,0.0-6.0-247.0,"""","""","""","""","""","""","""","""","""","""","""","""","2021-08-17 18:03:37",89.152.99.100,"Mozilla/5.0 (Windows NT 10.0; Win64; x64) AppleWebKit/537.36 (KHTML, like Gecko) Chrome/92.0.4515.131 Safari/537.36",WebKit,Chrome,92.0.4515.131,Windows,10.0,5f461dd6c139dd6b46c7596cbd57cd79
218,1,"""","""","""","""","""",sampler,254,156514,0.0-6.0-248.0,"""","""","""","""","""","""","""","""","""","""","""","""","2021-08-17 18:03:37",89.152.99.100,"Mozilla/5.0 (Windows NT 10.0; Win64; x64) AppleWebKit/537.36 (KHTML, like Gecko) Chrome/92.0.4515.131 Safari/537.36",WebKit,Chrome,92.0.4515.131,Windows,10.0,5f461dd6c139dd6b46c7596cbd57cd79
218,1,"""","""","""","""","""",sampler,255,156515,0.0-6.0-249.0,"""","""","""","""","""","""","""","""","""","""","""","""","2021-08-17 18:03:37",89.152.99.100,"Mozilla/5.0 (Windows NT 10.0; Win64; x64) AppleWebKit/537.36 (KHTML, like Gecko) Chrome/92.0.4515.131 Safari/537.36",WebKit,Chrome,92.0.4515.131,Windows,10.0,5f461dd6c139dd6b46c7596cbd57cd79
218,1,"""","""","""","""","""",sampler,256,156515,0.0-6.0-250.0,"""","""","""","""","""","""","""","""","""","""","""","""","2021-08-17 18:03:37",89.152.99.100,"Mozilla/5.0 (Windows NT 10.0; Win64; x64) AppleWebKit/537.36 (KHTML, like Gecko) Chrome/92.0.4515.131 Safari/537.36",WebKit,Chrome,92.0.4515.131,Windows,10.0,5f461dd6c139dd6b46c7596cbd57cd79
218,1,"""","""","""","""","""",sampler,257,156515,0.0-6.0-251.0,"""","""","""","""","""","""","""","""","""","""","""","""","2021-08-17 18:03:37",89.152.99.100,"Mozilla/5.0 (Windows NT 10.0; Win64; x64) AppleWebKit/537.36 (KHTML, like Gecko) Chrome/92.0.4515.131 Safari/537.36",WebKit,Chrome,92.0.4515.131,Windows,10.0,5f461dd6c139dd6b46c7596cbd57cd79
218,1,"""","""","""","""","""",sampler,258,156515,0.0-6.0-252.0,"""","""","""","""","""","""","""","""","""","""","""","""","2021-08-17 18:03:37",89.152.99.100,"Mozilla/5.0 (Windows NT 10.0; Win64; x64) AppleWebKit/537.36 (KHTML, like Gecko) Chrome/92.0.4515.131 Safari/537.36",WebKit,Chrome,92.0.4515.131,Windows,10.0,5f461dd6c139dd6b46c7596cbd57cd79
218,1,"""","""","""","""","""",sampler,259,156515,0.0-6.0-253.0,"""","""","""","""","""","""","""","""","""","""","""","""","2021-08-17 18:03:37",89.152.99.100,"Mozilla/5.0 (Windows NT 10.0; Win64; x64) AppleWebKit/537.36 (KHTML, like Gecko) Chrome/92.0.4515.131 Safari/537.36",WebKit,Chrome,92.0.4515.131,Windows,10.0,5f461dd6c139dd6b46c7596cbd57cd79
218,1,"""","""","""","""","""",sampler,260,156515,0.0-6.0-254.0,"""","""","""","""","""","""","""","""","""","""","""","""","2021-08-17 18:03:37",89.152.99.100,"Mozilla/5.0 (Windows NT 10.0; Win64; x64) AppleWebKit/537.36 (KHTML, like Gecko) Chrome/92.0.4515.131 Safari/537.36",WebKit,Chrome,92.0.4515.131,Windows,10.0,5f461dd6c139dd6b46c7596cbd57cd79
218,1,"""","""","""","""","""",sampler,261,156515,0.0-6.0-255.0,"""","""","""","""","""","""","""","""","""","""","""","""","2021-08-17 18:03:37",89.152.99.100,"Mozilla/5.0 (Windows NT 10.0; Win64; x64) AppleWebKit/537.36 (KHTML, like Gecko) Chrome/92.0.4515.131 Safari/537.36",WebKit,Chrome,92.0.4515.131,Windows,10.0,5f461dd6c139dd6b46c7596cbd57cd79
218,1,"""","""","""","""","""",sampler,262,156515,0.0-6.0-256.0,"""","""","""","""","""","""","""","""","""","""","""","""","2021-08-17 18:03:37",89.152.99.100,"Mozilla/5.0 (Windows NT 10.0; Win64; x64) AppleWebKit/537.36 (KHTML, like Gecko) Chrome/92.0.4515.131 Safari/537.36",WebKit,Chrome,92.0.4515.131,Windows,10.0,5f461dd6c139dd6b46c7596cbd57cd79
218,1,"""","""","""","""","""",sampler,263,156516,0.0-6.0-257.0,"""","""","""","""","""","""","""","""","""","""","""","""","2021-08-17 18:03:37",89.152.99.100,"Mozilla/5.0 (Windows NT 10.0; Win64; x64) AppleWebKit/537.36 (KHTML, like Gecko) Chrome/92.0.4515.131 Safari/537.36",WebKit,Chrome,92.0.4515.131,Windows,10.0,5f461dd6c139dd6b46c7596cbd57cd79
218,1,"""","""","""","""","""",sampler,264,156516,0.0-6.0-258.0,"""","""","""","""","""","""","""","""","""","""","""","""","2021-08-17 18:03:37",89.152.99.100,"Mozilla/5.0 (Windows NT 10.0; Win64; x64) AppleWebKit/537.36 (KHTML, like Gecko) Chrome/92.0.4515.131 Safari/537.36",WebKit,Chrome,92.0.4515.131,Windows,10.0,5f461dd6c139dd6b46c7596cbd57cd79
218,1,"""","""","""","""","""",sampler,265,156516,0.0-6.0-259.0,"""","""","""","""","""","""","""","""","""","""","""","""","2021-08-17 18:03:37",89.152.99.100,"Mozilla/5.0 (Windows NT 10.0; Win64; x64) AppleWebKit/537.36 (KHTML, like Gecko) Chrome/92.0.4515.131 Safari/537.36",WebKit,Chrome,92.0.4515.131,Windows,10.0,5f461dd6c139dd6b46c7596cbd57cd79
218,1,"""","""","""","""","""",sampler,266,156516,0.0-6.0-260.0,"""","""","""","""","""","""","""","""","""","""","""","""","2021-08-17 18:03:37",89.152.99.100,"Mozilla/5.0 (Windows NT 10.0; Win64; x64) AppleWebKit/537.36 (KHTML, like Gecko) Chrome/92.0.4515.131 Safari/537.36",WebKit,Chrome,92.0.4515.131,Windows,10.0,5f461dd6c139dd6b46c7596cbd57cd79
218,1,"""","""","""","""","""",sampler,267,156516,0.0-6.0-261.0,"""","""","""","""","""","""","""","""","""","""","""","""","2021-08-17 18:03:37",89.152.99.100,"Mozilla/5.0 (Windows NT 10.0; Win64; x64) AppleWebKit/537.36 (KHTML, like Gecko) Chrome/92.0.4515.131 Safari/537.36",WebKit,Chrome,92.0.4515.131,Windows,10.0,5f461dd6c139dd6b46c7596cbd57cd79
218,1,"""","""","""","""","""",sampler,268,156516,0.0-6.0-262.0,"""","""","""","""","""","""","""","""","""","""","""","""","2021-08-17 18:03:37",89.152.99.100,"Mozilla/5.0 (Windows NT 10.0; Win64; x64) AppleWebKit/537.36 (KHTML, like Gecko) Chrome/92.0.4515.131 Safari/537.36",WebKit,Chrome,92.0.4515.131,Windows,10.0,5f461dd6c139dd6b46c7596cbd57cd79
218,1,"""","""","""","""","""",sampler,269,156516,0.0-6.0-263.0,"""","""","""","""","""","""","""","""","""","""","""","""","2021-08-17 18:03:37",89.152.99.100,"Mozilla/5.0 (Windows NT 10.0; Win64; x64) AppleWebKit/537.36 (KHTML, like Gecko) Chrome/92.0.4515.131 Safari/537.36",WebKit,Chrome,92.0.4515.131,Windows,10.0,5f461dd6c139dd6b46c7596cbd57cd79
218,1,"""","""","""","""","""",sampler,270,156517,0.0-6.0-264.0,"""","""","""","""","""","""","""","""","""","""","""","""","2021-08-17 18:03:37",89.152.99.100,"Mozilla/5.0 (Windows NT 10.0; Win64; x64) AppleWebKit/537.36 (KHTML, like Gecko) Chrome/92.0.4515.131 Safari/537.36",WebKit,Chrome,92.0.4515.131,Windows,10.0,5f461dd6c139dd6b46c7596cbd57cd79
218,1,"""","""","""","""","""",sampler,271,156517,0.0-6.0-265.0,"""","""","""","""","""","""","""","""","""","""","""","""","2021-08-17 18:03:37",89.152.99.100,"Mozilla/5.0 (Windows NT 10.0; Win64; x64) AppleWebKit/537.36 (KHTML, like Gecko) Chrome/92.0.4515.131 Safari/537.36",WebKit,Chrome,92.0.4515.131,Windows,10.0,5f461dd6c139dd6b46c7596cbd57cd79
218,1,"""","""","""","""","""",sampler,272,156517,0.0-6.0-266.0,"""","""","""","""","""","""","""","""","""","""","""","""","2021-08-17 18:03:37",89.152.99.100,"Mozilla/5.0 (Windows NT 10.0; Win64; x64) AppleWebKit/537.36 (KHTML, like Gecko) Chrome/92.0.4515.131 Safari/537.36",WebKit,Chrome,92.0.4515.131,Windows,10.0,5f461dd6c139dd6b46c7596cbd57cd79
218,1,"""","""","""","""","""",sampler,273,156517,0.0-6.0-267.0,"""","""","""","""","""","""","""","""","""","""","""","""","2021-08-17 18:03:37",89.152.99.100,"Mozilla/5.0 (Windows NT 10.0; Win64; x64) AppleWebKit/537.36 (KHTML, like Gecko) Chrome/92.0.4515.131 Safari/537.36",WebKit,Chrome,92.0.4515.131,Windows,10.0,5f461dd6c139dd6b46c7596cbd57cd79
218,1,"""","""","""","""","""",sampler,274,156517,0.0-6.0-268.0,"""","""","""","""","""","""","""","""","""","""","""","""","2021-08-17 18:03:37",89.152.99.100,"Mozilla/5.0 (Windows NT 10.0; Win64; x64) AppleWebKit/537.36 (KHTML, like Gecko) Chrome/92.0.4515.131 Safari/537.36",WebKit,Chrome,92.0.4515.131,Windows,10.0,5f461dd6c139dd6b46c7596cbd57cd79
218,1,"""","""","""","""","""",sampler,275,156517,0.0-6.0-269.0,"""","""","""","""","""","""","""","""","""","""","""","""","2021-08-17 18:03:37",89.152.99.100,"Mozilla/5.0 (Windows NT 10.0; Win64; x64) AppleWebKit/537.36 (KHTML, like Gecko) Chrome/92.0.4515.131 Safari/537.36",WebKit,Chrome,92.0.4515.131,Windows,10.0,5f461dd6c139dd6b46c7596cbd57cd79
218,1,"""","""","""","""","""",sampler,276,156517,0.0-6.0-270.0,"""","""","""","""","""","""","""","""","""","""","""","""","2021-08-17 18:03:37",89.152.99.100,"Mozilla/5.0 (Windows NT 10.0; Win64; x64) AppleWebKit/537.36 (KHTML, like Gecko) Chrome/92.0.4515.131 Safari/537.36",WebKit,Chrome,92.0.4515.131,Windows,10.0,5f461dd6c139dd6b46c7596cbd57cd79
218,1,"""","""","""","""","""",sampler,277,156518,0.0-6.0-271.0,"""","""","""","""","""","""","""","""","""","""","""","""","2021-08-17 18:03:37",89.152.99.100,"Mozilla/5.0 (Windows NT 10.0; Win64; x64) AppleWebKit/537.36 (KHTML, like Gecko) Chrome/92.0.4515.131 Safari/537.36",WebKit,Chrome,92.0.4515.131,Windows,10.0,5f461dd6c139dd6b46c7596cbd57cd79
218,1,"""","""","""","""","""",sampler,278,156518,0.0-6.0-272.0,"""","""","""","""","""","""","""","""","""","""","""","""","2021-08-17 18:03:37",89.152.99.100,"Mozilla/5.0 (Windows NT 10.0; Win64; x64) AppleWebKit/537.36 (KHTML, like Gecko) Chrome/92.0.4515.131 Safari/537.36",WebKit,Chrome,92.0.4515.131,Windows,10.0,5f461dd6c139dd6b46c7596cbd57cd79
218,1,"""","""","""","""","""",sampler,279,156518,0.0-6.0-273.0,"""","""","""","""","""","""","""","""","""","""","""","""","2021-08-17 18:03:37",89.152.99.100,"Mozilla/5.0 (Windows NT 10.0; Win64; x64) AppleWebKit/537.36 (KHTML, like Gecko) Chrome/92.0.4515.131 Safari/537.36",WebKit,Chrome,92.0.4515.131,Windows,10.0,5f461dd6c139dd6b46c7596cbd57cd79
218,1,"""","""","""","""","""",sampler,280,156518,0.0-6.0-274.0,"""","""","""","""","""","""","""","""","""","""","""","""","2021-08-17 18:03:37",89.152.99.100,"Mozilla/5.0 (Windows NT 10.0; Win64; x64) AppleWebKit/537.36 (KHTML, like Gecko) Chrome/92.0.4515.131 Safari/537.36",WebKit,Chrome,92.0.4515.131,Windows,10.0,5f461dd6c139dd6b46c7596cbd57cd79
