run_id,condition,success,timeout,failed_images,failed_audio,failed_video,trial_type,trial_index,time_elapsed,internal_node_id,rt,stimulus,key_press,responses,view_history,correct,image_click,points,sd,points2,total_earn,button_pressed,recorded_at,ip,user_agent,device,browser,browser_version,platform,platform_version,source_code_version
227,1,true,false,"""","""","""",preload,0,1288,0.0-0.0,"""","""","""","""","""","""","""","""","""","""","""","""","2021-08-17 18:04:12",197.185.101.89,"Mozilla/5.0 (Windows NT 10.0; Win64; x64) AppleWebKit/537.36 (KHTML, like Gecko) Chrome/92.0.4515.159 Safari/537.36",WebKit,Chrome,92.0.4515.159,Windows,10.0,5f461dd6c139dd6b46c7596cbd57cd79
227,1,"""","""","""","""","""",html-keyboard-response,1,3952,0.0-1.0,2623,"<font size=15>Welcome to our experiment!</font><br><br><br><i> Press <b>space bar</b> to begin.</i>",32,"""","""","""","""","""","""","""","""","""","2021-08-17 18:04:12",197.185.101.89,"Mozilla/5.0 (Windows NT 10.0; Win64; x64) AppleWebKit/537.36 (KHTML, like Gecko) Chrome/92.0.4515.159 Safari/537.36",WebKit,Chrome,92.0.4515.159,Windows,10.0,5f461dd6c139dd6b46c7596cbd57cd79
227,1,"""","""","""","""","""",survey-multi-choice,2,17904,0.0-2.0,13936,"""","""","{""Q0"":""Yes"",""Q1"":""Yes"",""Q2"":""Yes"",""Q3"":""Yes""}","""","""","""","""","""","""","""","""","2021-08-17 18:04:12",197.185.101.89,"Mozilla/5.0 (Windows NT 10.0; Win64; x64) AppleWebKit/537.36 (KHTML, like Gecko) Chrome/92.0.4515.159 Safari/537.36",WebKit,Chrome,92.0.4515.159,Windows,10.0,5f461dd6c139dd6b46c7596cbd57cd79
227,1,"""","""","""","""","""",survey-html-form,3,45935,0.0-3.0,28013.59999999404,"""","""","{""gender"":""female"",""age"":""23"",""hand"":""right"",""mail"":""610ce0a48fc7e68abc4070c1""}","""","""","""","""","""","""","""","""","2021-08-17 18:04:12",197.185.101.89,"Mozilla/5.0 (Windows NT 10.0; Win64; x64) AppleWebKit/537.36 (KHTML, like Gecko) Chrome/92.0.4515.159 Safari/537.36",WebKit,Chrome,92.0.4515.159,Windows,10.0,5f461dd6c139dd6b46c7596cbd57cd79
227,1,true,"""","""","""","""",fullscreen,4,50705,0.0-4.0,"""","""","""","""","""","""","""","""","""","""","""","""","2021-08-17 18:04:12",197.185.101.89,"Mozilla/5.0 (Windows NT 10.0; Win64; x64) AppleWebKit/537.36 (KHTML, like Gecko) Chrome/92.0.4515.159 Safari/537.36",WebKit,Chrome,92.0.4515.159,Windows,10.0,5f461dd6c139dd6b46c7596cbd57cd79
227,1,"""","""","""","""","""",multikey-instructions,5,753051,0.0-5.0,702332,"""","""","""","[{""page_index"":0,""viewing_time"":134941},{""page_index"":1,""viewing_time"":510},{""page_index"":2,""viewing_time"":33394},{""page_index"":3,""viewing_time"":2879},{""page_index"":4,""viewing_time"":23976},{""page_index"":5,""viewing_time"":11837},{""page_index"":6,""viewing_time"":308414},{""page_index"":7,""viewing_time"":2726},{""page_index"":8,""viewing_time"":1071},{""page_index"":9,""viewing_time"":65891},{""page_index"":10,""viewing_time"":89281},{""page_index"":11,""viewing_time"":17330},{""page_index"":10,""viewing_time"":7716},{""page_index"":11,""viewing_time"":2362}]","""","""","""","""","""","""","""","2021-08-17 18:04:12",197.185.101.89,"Mozilla/5.0 (Windows NT 10.0; Win64; x64) AppleWebKit/537.36 (KHTML, like Gecko) Chrome/92.0.4515.159 Safari/537.36",WebKit,Chrome,92.0.4515.159,Windows,10.0,5f461dd6c139dd6b46c7596cbd57cd79
227,1,"""","""","""","""","""",sampler,6,773205,0.0-6.0-0.0,19740,img/Cyan.png,"""","""","""",false,-1,1.3662919076038023,5,"""","""","""","2021-08-17 18:04:12",197.185.101.89,"Mozilla/5.0 (Windows NT 10.0; Win64; x64) AppleWebKit/537.36 (KHTML, like Gecko) Chrome/92.0.4515.159 Safari/537.36",WebKit,Chrome,92.0.4515.159,Windows,10.0,5f461dd6c139dd6b46c7596cbd57cd79
227,1,"""","""","""","""","""",sampler,7,773214,0.0-6.0-1.0,"""","""","""","""","""","""","""","""","""","""","""","""","2021-08-17 18:04:12",197.185.101.89,"Mozilla/5.0 (Windows NT 10.0; Win64; x64) AppleWebKit/537.36 (KHTML, like Gecko) Chrome/92.0.4515.159 Safari/537.36",WebKit,Chrome,92.0.4515.159,Windows,10.0,5f461dd6c139dd6b46c7596cbd57cd79
227,1,"""","""","""","""","""",sampler,8,773216,0.0-6.0-2.0,"""","""","""","""","""","""","""","""","""","""","""","""","2021-08-17 18:04:12",197.185.101.89,"Mozilla/5.0 (Windows NT 10.0; Win64; x64) AppleWebKit/537.36 (KHTML, like Gecko) Chrome/92.0.4515.159 Safari/537.36",WebKit,Chrome,92.0.4515.159,Windows,10.0,5f461dd6c139dd6b46c7596cbd57cd79
227,1,"""","""","""","""","""",sampler,9,773218,0.0-6.0-3.0,"""","""","""","""","""","""","""","""","""","""","""","""","2021-08-17 18:04:12",197.185.101.89,"Mozilla/5.0 (Windows NT 10.0; Win64; x64) AppleWebKit/537.36 (KHTML, like Gecko) Chrome/92.0.4515.159 Safari/537.36",WebKit,Chrome,92.0.4515.159,Windows,10.0,5f461dd6c139dd6b46c7596cbd57cd79
227,1,"""","""","""","""","""",sampler,10,773219,0.0-6.0-4.0,"""","""","""","""","""","""","""","""","""","""","""","""","2021-08-17 18:04:12",197.185.101.89,"Mozilla/5.0 (Windows NT 10.0; Win64; x64) AppleWebKit/537.36 (KHTML, like Gecko) Chrome/92.0.4515.159 Safari/537.36",WebKit,Chrome,92.0.4515.159,Windows,10.0,5f461dd6c139dd6b46c7596cbd57cd79
227,1,"""","""","""","""","""",sampler,11,773220,0.0-6.0-5.0,"""","""","""","""","""","""","""","""","""","""","""","""","2021-08-17 18:04:12",197.185.101.89,"Mozilla/5.0 (Windows NT 10.0; Win64; x64) AppleWebKit/537.36 (KHTML, like Gecko) Chrome/92.0.4515.159 Safari/537.36",WebKit,Chrome,92.0.4515.159,Windows,10.0,5f461dd6c139dd6b46c7596cbd57cd79
227,1,"""","""","""","""","""",sampler,12,773221,0.0-6.0-6.0,"""","""","""","""","""","""","""","""","""","""","""","""","2021-08-17 18:04:12",197.185.101.89,"Mozilla/5.0 (Windows NT 10.0; Win64; x64) AppleWebKit/537.36 (KHTML, like Gecko) Chrome/92.0.4515.159 Safari/537.36",WebKit,Chrome,92.0.4515.159,Windows,10.0,5f461dd6c139dd6b46c7596cbd57cd79
227,1,"""","""","""","""","""",sampler,13,773222,0.0-6.0-7.0,"""","""","""","""","""","""","""","""","""","""","""","""","2021-08-17 18:04:12",197.185.101.89,"Mozilla/5.0 (Windows NT 10.0; Win64; x64) AppleWebKit/537.36 (KHTML, like Gecko) Chrome/92.0.4515.159 Safari/537.36",WebKit,Chrome,92.0.4515.159,Windows,10.0,5f461dd6c139dd6b46c7596cbd57cd79
227,1,"""","""","""","""","""",sampler,14,773223,0.0-6.0-8.0,"""","""","""","""","""","""","""","""","""","""","""","""","2021-08-17 18:04:12",197.185.101.89,"Mozilla/5.0 (Windows NT 10.0; Win64; x64) AppleWebKit/537.36 (KHTML, like Gecko) Chrome/92.0.4515.159 Safari/537.36",WebKit,Chrome,92.0.4515.159,Windows,10.0,5f461dd6c139dd6b46c7596cbd57cd79
227,1,"""","""","""","""","""",sampler,15,773223,0.0-6.0-9.0,"""","""","""","""","""","""","""","""","""","""","""","""","2021-08-17 18:04:12",197.185.101.89,"Mozilla/5.0 (Windows NT 10.0; Win64; x64) AppleWebKit/537.36 (KHTML, like Gecko) Chrome/92.0.4515.159 Safari/537.36",WebKit,Chrome,92.0.4515.159,Windows,10.0,5f461dd6c139dd6b46c7596cbd57cd79
227,1,"""","""","""","""","""",sampler,16,773224,0.0-6.0-10.0,"""","""","""","""","""","""","""","""","""","""","""","""","2021-08-17 18:04:12",197.185.101.89,"Mozilla/5.0 (Windows NT 10.0; Win64; x64) AppleWebKit/537.36 (KHTML, like Gecko) Chrome/92.0.4515.159 Safari/537.36",WebKit,Chrome,92.0.4515.159,Windows,10.0,5f461dd6c139dd6b46c7596cbd57cd79
227,1,"""","""","""","""","""",sampler,17,773225,0.0-6.0-11.0,"""","""","""","""","""","""","""","""","""","""","""","""","2021-08-17 18:04:12",197.185.101.89,"Mozilla/5.0 (Windows NT 10.0; Win64; x64) AppleWebKit/537.36 (KHTML, like Gecko) Chrome/92.0.4515.159 Safari/537.36",WebKit,Chrome,92.0.4515.159,Windows,10.0,5f461dd6c139dd6b46c7596cbd57cd79
227,1,"""","""","""","""","""",sampler,18,773225,0.0-6.0-12.0,"""","""","""","""","""","""","""","""","""","""","""","""","2021-08-17 18:04:12",197.185.101.89,"Mozilla/5.0 (Windows NT 10.0; Win64; x64) AppleWebKit/537.36 (KHTML, like Gecko) Chrome/92.0.4515.159 Safari/537.36",WebKit,Chrome,92.0.4515.159,Windows,10.0,5f461dd6c139dd6b46c7596cbd57cd79
227,1,"""","""","""","""","""",sampler,19,773226,0.0-6.0-13.0,"""","""","""","""","""","""","""","""","""","""","""","""","2021-08-17 18:04:12",197.185.101.89,"Mozilla/5.0 (Windows NT 10.0; Win64; x64) AppleWebKit/537.36 (KHTML, like Gecko) Chrome/92.0.4515.159 Safari/537.36",WebKit,Chrome,92.0.4515.159,Windows,10.0,5f461dd6c139dd6b46c7596cbd57cd79
227,1,"""","""","""","""","""",sampler,20,773226,0.0-6.0-14.0,"""","""","""","""","""","""","""","""","""","""","""","""","2021-08-17 18:04:12",197.185.101.89,"Mozilla/5.0 (Windows NT 10.0; Win64; x64) AppleWebKit/537.36 (KHTML, like Gecko) Chrome/92.0.4515.159 Safari/537.36",WebKit,Chrome,92.0.4515.159,Windows,10.0,5f461dd6c139dd6b46c7596cbd57cd79
227,1,"""","""","""","""","""",sampler,21,773227,0.0-6.0-15.0,"""","""","""","""","""","""","""","""","""","""","""","""","2021-08-17 18:04:12",197.185.101.89,"Mozilla/5.0 (Windows NT 10.0; Win64; x64) AppleWebKit/537.36 (KHTML, like Gecko) Chrome/92.0.4515.159 Safari/537.36",WebKit,Chrome,92.0.4515.159,Windows,10.0,5f461dd6c139dd6b46c7596cbd57cd79
227,1,"""","""","""","""","""",sampler,22,773227,0.0-6.0-16.0,"""","""","""","""","""","""","""","""","""","""","""","""","2021-08-17 18:04:12",197.185.101.89,"Mozilla/5.0 (Windows NT 10.0; Win64; x64) AppleWebKit/537.36 (KHTML, like Gecko) Chrome/92.0.4515.159 Safari/537.36",WebKit,Chrome,92.0.4515.159,Windows,10.0,5f461dd6c139dd6b46c7596cbd57cd79
227,1,"""","""","""","""","""",sampler,23,773228,0.0-6.0-17.0,"""","""","""","""","""","""","""","""","""","""","""","""","2021-08-17 18:04:12",197.185.101.89,"Mozilla/5.0 (Windows NT 10.0; Win64; x64) AppleWebKit/537.36 (KHTML, like Gecko) Chrome/92.0.4515.159 Safari/537.36",WebKit,Chrome,92.0.4515.159,Windows,10.0,5f461dd6c139dd6b46c7596cbd57cd79
227,1,"""","""","""","""","""",sampler,24,773228,0.0-6.0-18.0,"""","""","""","""","""","""","""","""","""","""","""","""","2021-08-17 18:04:12",197.185.101.89,"Mozilla/5.0 (Windows NT 10.0; Win64; x64) AppleWebKit/537.36 (KHTML, like Gecko) Chrome/92.0.4515.159 Safari/537.36",WebKit,Chrome,92.0.4515.159,Windows,10.0,5f461dd6c139dd6b46c7596cbd57cd79
227,1,"""","""","""","""","""",sampler,25,773229,0.0-6.0-19.0,"""","""","""","""","""","""","""","""","""","""","""","""","2021-08-17 18:04:12",197.185.101.89,"Mozilla/5.0 (Windows NT 10.0; Win64; x64) AppleWebKit/537.36 (KHTML, like Gecko) Chrome/92.0.4515.159 Safari/537.36",WebKit,Chrome,92.0.4515.159,Windows,10.0,5f461dd6c139dd6b46c7596cbd57cd79
227,1,"""","""","""","""","""",sampler,26,773230,0.0-6.0-20.0,"""","""","""","""","""","""","""","""","""","""","""","""","2021-08-17 18:04:12",197.185.101.89,"Mozilla/5.0 (Windows NT 10.0; Win64; x64) AppleWebKit/537.36 (KHTML, like Gecko) Chrome/92.0.4515.159 Safari/537.36",WebKit,Chrome,92.0.4515.159,Windows,10.0,5f461dd6c139dd6b46c7596cbd57cd79
227,1,"""","""","""","""","""",sampler,27,773230,0.0-6.0-21.0,"""","""","""","""","""","""","""","""","""","""","""","""","2021-08-17 18:04:12",197.185.101.89,"Mozilla/5.0 (Windows NT 10.0; Win64; x64) AppleWebKit/537.36 (KHTML, like Gecko) Chrome/92.0.4515.159 Safari/537.36",WebKit,Chrome,92.0.4515.159,Windows,10.0,5f461dd6c139dd6b46c7596cbd57cd79
227,1,"""","""","""","""","""",sampler,28,773231,0.0-6.0-22.0,"""","""","""","""","""","""","""","""","""","""","""","""","2021-08-17 18:04:12",197.185.101.89,"Mozilla/5.0 (Windows NT 10.0; Win64; x64) AppleWebKit/537.36 (KHTML, like Gecko) Chrome/92.0.4515.159 Safari/537.36",WebKit,Chrome,92.0.4515.159,Windows,10.0,5f461dd6c139dd6b46c7596cbd57cd79
227,1,"""","""","""","""","""",sampler,29,773232,0.0-6.0-23.0,"""","""","""","""","""","""","""","""","""","""","""","""","2021-08-17 18:04:12",197.185.101.89,"Mozilla/5.0 (Windows NT 10.0; Win64; x64) AppleWebKit/537.36 (KHTML, like Gecko) Chrome/92.0.4515.159 Safari/537.36",WebKit,Chrome,92.0.4515.159,Windows,10.0,5f461dd6c139dd6b46c7596cbd57cd79
227,1,"""","""","""","""","""",sampler,30,773233,0.0-6.0-24.0,"""","""","""","""","""","""","""","""","""","""","""","""","2021-08-17 18:04:12",197.185.101.89,"Mozilla/5.0 (Windows NT 10.0; Win64; x64) AppleWebKit/537.36 (KHTML, like Gecko) Chrome/92.0.4515.159 Safari/537.36",WebKit,Chrome,92.0.4515.159,Windows,10.0,5f461dd6c139dd6b46c7596cbd57cd79
227,1,"""","""","""","""","""",sampler,31,773234,0.0-6.0-25.0,"""","""","""","""","""","""","""","""","""","""","""","""","2021-08-17 18:04:12",197.185.101.89,"Mozilla/5.0 (Windows NT 10.0; Win64; x64) AppleWebKit/537.36 (KHTML, like Gecko) Chrome/92.0.4515.159 Safari/537.36",WebKit,Chrome,92.0.4515.159,Windows,10.0,5f461dd6c139dd6b46c7596cbd57cd79
227,1,"""","""","""","""","""",sampler,32,773235,0.0-6.0-26.0,"""","""","""","""","""","""","""","""","""","""","""","""","2021-08-17 18:04:12",197.185.101.89,"Mozilla/5.0 (Windows NT 10.0; Win64; x64) AppleWebKit/537.36 (KHTML, like Gecko) Chrome/92.0.4515.159 Safari/537.36",WebKit,Chrome,92.0.4515.159,Windows,10.0,5f461dd6c139dd6b46c7596cbd57cd79
227,1,"""","""","""","""","""",sampler,33,773235,0.0-6.0-27.0,"""","""","""","""","""","""","""","""","""","""","""","""","2021-08-17 18:04:12",197.185.101.89,"Mozilla/5.0 (Windows NT 10.0; Win64; x64) AppleWebKit/537.36 (KHTML, like Gecko) Chrome/92.0.4515.159 Safari/537.36",WebKit,Chrome,92.0.4515.159,Windows,10.0,5f461dd6c139dd6b46c7596cbd57cd79
227,1,"""","""","""","""","""",sampler,34,773236,0.0-6.0-28.0,"""","""","""","""","""","""","""","""","""","""","""","""","2021-08-17 18:04:12",197.185.101.89,"Mozilla/5.0 (Windows NT 10.0; Win64; x64) AppleWebKit/537.36 (KHTML, like Gecko) Chrome/92.0.4515.159 Safari/537.36",WebKit,Chrome,92.0.4515.159,Windows,10.0,5f461dd6c139dd6b46c7596cbd57cd79
227,1,"""","""","""","""","""",sampler,35,773237,0.0-6.0-29.0,"""","""","""","""","""","""","""","""","""","""","""","""","2021-08-17 18:04:12",197.185.101.89,"Mozilla/5.0 (Windows NT 10.0; Win64; x64) AppleWebKit/537.36 (KHTML, like Gecko) Chrome/92.0.4515.159 Safari/537.36",WebKit,Chrome,92.0.4515.159,Windows,10.0,5f461dd6c139dd6b46c7596cbd57cd79
227,1,"""","""","""","""","""",sampler,36,773238,0.0-6.0-30.0,"""","""","""","""","""","""","""","""","""","""","""","""","2021-08-17 18:04:12",197.185.101.89,"Mozilla/5.0 (Windows NT 10.0; Win64; x64) AppleWebKit/537.36 (KHTML, like Gecko) Chrome/92.0.4515.159 Safari/537.36",WebKit,Chrome,92.0.4515.159,Windows,10.0,5f461dd6c139dd6b46c7596cbd57cd79
227,1,"""","""","""","""","""",sampler,37,773238,0.0-6.0-31.0,"""","""","""","""","""","""","""","""","""","""","""","""","2021-08-17 18:04:12",197.185.101.89,"Mozilla/5.0 (Windows NT 10.0; Win64; x64) AppleWebKit/537.36 (KHTML, like Gecko) Chrome/92.0.4515.159 Safari/537.36",WebKit,Chrome,92.0.4515.159,Windows,10.0,5f461dd6c139dd6b46c7596cbd57cd79
227,1,"""","""","""","""","""",sampler,38,773239,0.0-6.0-32.0,"""","""","""","""","""","""","""","""","""","""","""","""","2021-08-17 18:04:12",197.185.101.89,"Mozilla/5.0 (Windows NT 10.0; Win64; x64) AppleWebKit/537.36 (KHTML, like Gecko) Chrome/92.0.4515.159 Safari/537.36",WebKit,Chrome,92.0.4515.159,Windows,10.0,5f461dd6c139dd6b46c7596cbd57cd79
227,1,"""","""","""","""","""",sampler,39,773240,0.0-6.0-33.0,"""","""","""","""","""","""","""","""","""","""","""","""","2021-08-17 18:04:12",197.185.101.89,"Mozilla/5.0 (Windows NT 10.0; Win64; x64) AppleWebKit/537.36 (KHTML, like Gecko) Chrome/92.0.4515.159 Safari/537.36",WebKit,Chrome,92.0.4515.159,Windows,10.0,5f461dd6c139dd6b46c7596cbd57cd79
227,1,"""","""","""","""","""",sampler,40,773240,0.0-6.0-34.0,"""","""","""","""","""","""","""","""","""","""","""","""","2021-08-17 18:04:12",197.185.101.89,"Mozilla/5.0 (Windows NT 10.0; Win64; x64) AppleWebKit/537.36 (KHTML, like Gecko) Chrome/92.0.4515.159 Safari/537.36",WebKit,Chrome,92.0.4515.159,Windows,10.0,5f461dd6c139dd6b46c7596cbd57cd79
227,1,"""","""","""","""","""",sampler,41,773241,0.0-6.0-35.0,"""","""","""","""","""","""","""","""","""","""","""","""","2021-08-17 18:04:12",197.185.101.89,"Mozilla/5.0 (Windows NT 10.0; Win64; x64) AppleWebKit/537.36 (KHTML, like Gecko) Chrome/92.0.4515.159 Safari/537.36",WebKit,Chrome,92.0.4515.159,Windows,10.0,5f461dd6c139dd6b46c7596cbd57cd79
227,1,"""","""","""","""","""",sampler,42,773242,0.0-6.0-36.0,"""","""","""","""","""","""","""","""","""","""","""","""","2021-08-17 18:04:12",197.185.101.89,"Mozilla/5.0 (Windows NT 10.0; Win64; x64) AppleWebKit/537.36 (KHTML, like Gecko) Chrome/92.0.4515.159 Safari/537.36",WebKit,Chrome,92.0.4515.159,Windows,10.0,5f461dd6c139dd6b46c7596cbd57cd79
227,1,"""","""","""","""","""",sampler,43,773242,0.0-6.0-37.0,"""","""","""","""","""","""","""","""","""","""","""","""","2021-08-17 18:04:12",197.185.101.89,"Mozilla/5.0 (Windows NT 10.0; Win64; x64) AppleWebKit/537.36 (KHTML, like Gecko) Chrome/92.0.4515.159 Safari/537.36",WebKit,Chrome,92.0.4515.159,Windows,10.0,5f461dd6c139dd6b46c7596cbd57cd79
227,1,"""","""","""","""","""",sampler,44,773243,0.0-6.0-38.0,"""","""","""","""","""","""","""","""","""","""","""","""","2021-08-17 18:04:12",197.185.101.89,"Mozilla/5.0 (Windows NT 10.0; Win64; x64) AppleWebKit/537.36 (KHTML, like Gecko) Chrome/92.0.4515.159 Safari/537.36",WebKit,Chrome,92.0.4515.159,Windows,10.0,5f461dd6c139dd6b46c7596cbd57cd79
227,1,"""","""","""","""","""",sampler,45,773243,0.0-6.0-39.0,"""","""","""","""","""","""","""","""","""","""","""","""","2021-08-17 18:04:12",197.185.101.89,"Mozilla/5.0 (Windows NT 10.0; Win64; x64) AppleWebKit/537.36 (KHTML, like Gecko) Chrome/92.0.4515.159 Safari/537.36",WebKit,Chrome,92.0.4515.159,Windows,10.0,5f461dd6c139dd6b46c7596cbd57cd79
227,1,"""","""","""","""","""",sampler,46,773245,0.0-6.0-40.0,"""","""","""","""","""","""","""","""","""","""","""","""","2021-08-17 18:04:12",197.185.101.89,"Mozilla/5.0 (Windows NT 10.0; Win64; x64) AppleWebKit/537.36 (KHTML, like Gecko) Chrome/92.0.4515.159 Safari/537.36",WebKit,Chrome,92.0.4515.159,Windows,10.0,5f461dd6c139dd6b46c7596cbd57cd79
227,1,"""","""","""","""","""",sampler,47,773246,0.0-6.0-41.0,"""","""","""","""","""","""","""","""","""","""","""","""","2021-08-17 18:04:12",197.185.101.89,"Mozilla/5.0 (Windows NT 10.0; Win64; x64) AppleWebKit/537.36 (KHTML, like Gecko) Chrome/92.0.4515.159 Safari/537.36",WebKit,Chrome,92.0.4515.159,Windows,10.0,5f461dd6c139dd6b46c7596cbd57cd79
227,1,"""","""","""","""","""",sampler,48,773246,0.0-6.0-42.0,"""","""","""","""","""","""","""","""","""","""","""","""","2021-08-17 18:04:12",197.185.101.89,"Mozilla/5.0 (Windows NT 10.0; Win64; x64) AppleWebKit/537.36 (KHTML, like Gecko) Chrome/92.0.4515.159 Safari/537.36",WebKit,Chrome,92.0.4515.159,Windows,10.0,5f461dd6c139dd6b46c7596cbd57cd79
227,1,"""","""","""","""","""",sampler,49,773247,0.0-6.0-43.0,"""","""","""","""","""","""","""","""","""","""","""","""","2021-08-17 18:04:12",197.185.101.89,"Mozilla/5.0 (Windows NT 10.0; Win64; x64) AppleWebKit/537.36 (KHTML, like Gecko) Chrome/92.0.4515.159 Safari/537.36",WebKit,Chrome,92.0.4515.159,Windows,10.0,5f461dd6c139dd6b46c7596cbd57cd79
227,1,"""","""","""","""","""",sampler,50,773248,0.0-6.0-44.0,"""","""","""","""","""","""","""","""","""","""","""","""","2021-08-17 18:04:12",197.185.101.89,"Mozilla/5.0 (Windows NT 10.0; Win64; x64) AppleWebKit/537.36 (KHTML, like Gecko) Chrome/92.0.4515.159 Safari/537.36",WebKit,Chrome,92.0.4515.159,Windows,10.0,5f461dd6c139dd6b46c7596cbd57cd79
227,1,"""","""","""","""","""",sampler,51,773248,0.0-6.0-45.0,"""","""","""","""","""","""","""","""","""","""","""","""","2021-08-17 18:04:12",197.185.101.89,"Mozilla/5.0 (Windows NT 10.0; Win64; x64) AppleWebKit/537.36 (KHTML, like Gecko) Chrome/92.0.4515.159 Safari/537.36",WebKit,Chrome,92.0.4515.159,Windows,10.0,5f461dd6c139dd6b46c7596cbd57cd79
227,1,"""","""","""","""","""",sampler,52,773249,0.0-6.0-46.0,"""","""","""","""","""","""","""","""","""","""","""","""","2021-08-17 18:04:12",197.185.101.89,"Mozilla/5.0 (Windows NT 10.0; Win64; x64) AppleWebKit/537.36 (KHTML, like Gecko) Chrome/92.0.4515.159 Safari/537.36",WebKit,Chrome,92.0.4515.159,Windows,10.0,5f461dd6c139dd6b46c7596cbd57cd79
227,1,"""","""","""","""","""",sampler,53,773250,0.0-6.0-47.0,"""","""","""","""","""","""","""","""","""","""","""","""","2021-08-17 18:04:12",197.185.101.89,"Mozilla/5.0 (Windows NT 10.0; Win64; x64) AppleWebKit/537.36 (KHTML, like Gecko) Chrome/92.0.4515.159 Safari/537.36",WebKit,Chrome,92.0.4515.159,Windows,10.0,5f461dd6c139dd6b46c7596cbd57cd79
227,1,"""","""","""","""","""",sampler,54,773251,0.0-6.0-48.0,"""","""","""","""","""","""","""","""","""","""","""","""","2021-08-17 18:04:12",197.185.101.89,"Mozilla/5.0 (Windows NT 10.0; Win64; x64) AppleWebKit/537.36 (KHTML, like Gecko) Chrome/92.0.4515.159 Safari/537.36",WebKit,Chrome,92.0.4515.159,Windows,10.0,5f461dd6c139dd6b46c7596cbd57cd79
227,1,"""","""","""","""","""",sampler,55,773252,0.0-6.0-49.0,"""","""","""","""","""","""","""","""","""","""","""","""","2021-08-17 18:04:12",197.185.101.89,"Mozilla/5.0 (Windows NT 10.0; Win64; x64) AppleWebKit/537.36 (KHTML, like Gecko) Chrome/92.0.4515.159 Safari/537.36",WebKit,Chrome,92.0.4515.159,Windows,10.0,5f461dd6c139dd6b46c7596cbd57cd79
227,1,"""","""","""","""","""",sampler,56,773252,0.0-6.0-50.0,"""","""","""","""","""","""","""","""","""","""","""","""","2021-08-17 18:04:12",197.185.101.89,"Mozilla/5.0 (Windows NT 10.0; Win64; x64) AppleWebKit/537.36 (KHTML, like Gecko) Chrome/92.0.4515.159 Safari/537.36",WebKit,Chrome,92.0.4515.159,Windows,10.0,5f461dd6c139dd6b46c7596cbd57cd79
227,1,"""","""","""","""","""",sampler,57,773253,0.0-6.0-51.0,"""","""","""","""","""","""","""","""","""","""","""","""","2021-08-17 18:04:12",197.185.101.89,"Mozilla/5.0 (Windows NT 10.0; Win64; x64) AppleWebKit/537.36 (KHTML, like Gecko) Chrome/92.0.4515.159 Safari/537.36",WebKit,Chrome,92.0.4515.159,Windows,10.0,5f461dd6c139dd6b46c7596cbd57cd79
227,1,"""","""","""","""","""",sampler,58,773254,0.0-6.0-52.0,"""","""","""","""","""","""","""","""","""","""","""","""","2021-08-17 18:04:12",197.185.101.89,"Mozilla/5.0 (Windows NT 10.0; Win64; x64) AppleWebKit/537.36 (KHTML, like Gecko) Chrome/92.0.4515.159 Safari/537.36",WebKit,Chrome,92.0.4515.159,Windows,10.0,5f461dd6c139dd6b46c7596cbd57cd79
227,1,"""","""","""","""","""",sampler,59,773254,0.0-6.0-53.0,"""","""","""","""","""","""","""","""","""","""","""","""","2021-08-17 18:04:12",197.185.101.89,"Mozilla/5.0 (Windows NT 10.0; Win64; x64) AppleWebKit/537.36 (KHTML, like Gecko) Chrome/92.0.4515.159 Safari/537.36",WebKit,Chrome,92.0.4515.159,Windows,10.0,5f461dd6c139dd6b46c7596cbd57cd79
227,1,"""","""","""","""","""",sampler,60,773255,0.0-6.0-54.0,"""","""","""","""","""","""","""","""","""","""","""","""","2021-08-17 18:04:12",197.185.101.89,"Mozilla/5.0 (Windows NT 10.0; Win64; x64) AppleWebKit/537.36 (KHTML, like Gecko) Chrome/92.0.4515.159 Safari/537.36",WebKit,Chrome,92.0.4515.159,Windows,10.0,5f461dd6c139dd6b46c7596cbd57cd79
227,1,"""","""","""","""","""",sampler,61,773256,0.0-6.0-55.0,"""","""","""","""","""","""","""","""","""","""","""","""","2021-08-17 18:04:12",197.185.101.89,"Mozilla/5.0 (Windows NT 10.0; Win64; x64) AppleWebKit/537.36 (KHTML, like Gecko) Chrome/92.0.4515.159 Safari/537.36",WebKit,Chrome,92.0.4515.159,Windows,10.0,5f461dd6c139dd6b46c7596cbd57cd79
227,1,"""","""","""","""","""",sampler,62,773256,0.0-6.0-56.0,"""","""","""","""","""","""","""","""","""","""","""","""","2021-08-17 18:04:12",197.185.101.89,"Mozilla/5.0 (Windows NT 10.0; Win64; x64) AppleWebKit/537.36 (KHTML, like Gecko) Chrome/92.0.4515.159 Safari/537.36",WebKit,Chrome,92.0.4515.159,Windows,10.0,5f461dd6c139dd6b46c7596cbd57cd79
227,1,"""","""","""","""","""",sampler,63,773257,0.0-6.0-57.0,"""","""","""","""","""","""","""","""","""","""","""","""","2021-08-17 18:04:12",197.185.101.89,"Mozilla/5.0 (Windows NT 10.0; Win64; x64) AppleWebKit/537.36 (KHTML, like Gecko) Chrome/92.0.4515.159 Safari/537.36",WebKit,Chrome,92.0.4515.159,Windows,10.0,5f461dd6c139dd6b46c7596cbd57cd79
227,1,"""","""","""","""","""",sampler,64,773257,0.0-6.0-58.0,"""","""","""","""","""","""","""","""","""","""","""","""","2021-08-17 18:04:12",197.185.101.89,"Mozilla/5.0 (Windows NT 10.0; Win64; x64) AppleWebKit/537.36 (KHTML, like Gecko) Chrome/92.0.4515.159 Safari/537.36",WebKit,Chrome,92.0.4515.159,Windows,10.0,5f461dd6c139dd6b46c7596cbd57cd79
227,1,"""","""","""","""","""",sampler,65,773258,0.0-6.0-59.0,"""","""","""","""","""","""","""","""","""","""","""","""","2021-08-17 18:04:12",197.185.101.89,"Mozilla/5.0 (Windows NT 10.0; Win64; x64) AppleWebKit/537.36 (KHTML, like Gecko) Chrome/92.0.4515.159 Safari/537.36",WebKit,Chrome,92.0.4515.159,Windows,10.0,5f461dd6c139dd6b46c7596cbd57cd79
227,1,"""","""","""","""","""",sampler,66,773259,0.0-6.0-60.0,"""","""","""","""","""","""","""","""","""","""","""","""","2021-08-17 18:04:12",197.185.101.89,"Mozilla/5.0 (Windows NT 10.0; Win64; x64) AppleWebKit/537.36 (KHTML, like Gecko) Chrome/92.0.4515.159 Safari/537.36",WebKit,Chrome,92.0.4515.159,Windows,10.0,5f461dd6c139dd6b46c7596cbd57cd79
227,1,"""","""","""","""","""",sampler,67,773259,0.0-6.0-61.0,"""","""","""","""","""","""","""","""","""","""","""","""","2021-08-17 18:04:12",197.185.101.89,"Mozilla/5.0 (Windows NT 10.0; Win64; x64) AppleWebKit/537.36 (KHTML, like Gecko) Chrome/92.0.4515.159 Safari/537.36",WebKit,Chrome,92.0.4515.159,Windows,10.0,5f461dd6c139dd6b46c7596cbd57cd79
227,1,"""","""","""","""","""",sampler,68,773260,0.0-6.0-62.0,"""","""","""","""","""","""","""","""","""","""","""","""","2021-08-17 18:04:12",197.185.101.89,"Mozilla/5.0 (Windows NT 10.0; Win64; x64) AppleWebKit/537.36 (KHTML, like Gecko) Chrome/92.0.4515.159 Safari/537.36",WebKit,Chrome,92.0.4515.159,Windows,10.0,5f461dd6c139dd6b46c7596cbd57cd79
227,1,"""","""","""","""","""",sampler,69,773260,0.0-6.0-63.0,"""","""","""","""","""","""","""","""","""","""","""","""","2021-08-17 18:04:12",197.185.101.89,"Mozilla/5.0 (Windows NT 10.0; Win64; x64) AppleWebKit/537.36 (KHTML, like Gecko) Chrome/92.0.4515.159 Safari/537.36",WebKit,Chrome,92.0.4515.159,Windows,10.0,5f461dd6c139dd6b46c7596cbd57cd79
227,1,"""","""","""","""","""",sampler,70,773266,0.0-6.0-64.0,"""","""","""","""","""","""","""","""","""","""","""","""","2021-08-17 18:04:12",197.185.101.89,"Mozilla/5.0 (Windows NT 10.0; Win64; x64) AppleWebKit/537.36 (KHTML, like Gecko) Chrome/92.0.4515.159 Safari/537.36",WebKit,Chrome,92.0.4515.159,Windows,10.0,5f461dd6c139dd6b46c7596cbd57cd79
227,1,"""","""","""","""","""",sampler,71,773267,0.0-6.0-65.0,"""","""","""","""","""","""","""","""","""","""","""","""","2021-08-17 18:04:12",197.185.101.89,"Mozilla/5.0 (Windows NT 10.0; Win64; x64) AppleWebKit/537.36 (KHTML, like Gecko) Chrome/92.0.4515.159 Safari/537.36",WebKit,Chrome,92.0.4515.159,Windows,10.0,5f461dd6c139dd6b46c7596cbd57cd79
227,1,"""","""","""","""","""",sampler,72,773268,0.0-6.0-66.0,"""","""","""","""","""","""","""","""","""","""","""","""","2021-08-17 18:04:12",197.185.101.89,"Mozilla/5.0 (Windows NT 10.0; Win64; x64) AppleWebKit/537.36 (KHTML, like Gecko) Chrome/92.0.4515.159 Safari/537.36",WebKit,Chrome,92.0.4515.159,Windows,10.0,5f461dd6c139dd6b46c7596cbd57cd79
227,1,"""","""","""","""","""",sampler,73,773269,0.0-6.0-67.0,"""","""","""","""","""","""","""","""","""","""","""","""","2021-08-17 18:04:12",197.185.101.89,"Mozilla/5.0 (Windows NT 10.0; Win64; x64) AppleWebKit/537.36 (KHTML, like Gecko) Chrome/92.0.4515.159 Safari/537.36",WebKit,Chrome,92.0.4515.159,Windows,10.0,5f461dd6c139dd6b46c7596cbd57cd79
227,1,"""","""","""","""","""",sampler,74,773269,0.0-6.0-68.0,"""","""","""","""","""","""","""","""","""","""","""","""","2021-08-17 18:04:12",197.185.101.89,"Mozilla/5.0 (Windows NT 10.0; Win64; x64) AppleWebKit/537.36 (KHTML, like Gecko) Chrome/92.0.4515.159 Safari/537.36",WebKit,Chrome,92.0.4515.159,Windows,10.0,5f461dd6c139dd6b46c7596cbd57cd79
227,1,"""","""","""","""","""",sampler,75,773270,0.0-6.0-69.0,"""","""","""","""","""","""","""","""","""","""","""","""","2021-08-17 18:04:12",197.185.101.89,"Mozilla/5.0 (Windows NT 10.0; Win64; x64) AppleWebKit/537.36 (KHTML, like Gecko) Chrome/92.0.4515.159 Safari/537.36",WebKit,Chrome,92.0.4515.159,Windows,10.0,5f461dd6c139dd6b46c7596cbd57cd79
227,1,"""","""","""","""","""",sampler,76,773271,0.0-6.0-70.0,"""","""","""","""","""","""","""","""","""","""","""","""","2021-08-17 18:04:12",197.185.101.89,"Mozilla/5.0 (Windows NT 10.0; Win64; x64) AppleWebKit/537.36 (KHTML, like Gecko) Chrome/92.0.4515.159 Safari/537.36",WebKit,Chrome,92.0.4515.159,Windows,10.0,5f461dd6c139dd6b46c7596cbd57cd79
227,1,"""","""","""","""","""",sampler,77,773271,0.0-6.0-71.0,"""","""","""","""","""","""","""","""","""","""","""","""","2021-08-17 18:04:12",197.185.101.89,"Mozilla/5.0 (Windows NT 10.0; Win64; x64) AppleWebKit/537.36 (KHTML, like Gecko) Chrome/92.0.4515.159 Safari/537.36",WebKit,Chrome,92.0.4515.159,Windows,10.0,5f461dd6c139dd6b46c7596cbd57cd79
227,1,"""","""","""","""","""",sampler,78,773272,0.0-6.0-72.0,"""","""","""","""","""","""","""","""","""","""","""","""","2021-08-17 18:04:12",197.185.101.89,"Mozilla/5.0 (Windows NT 10.0; Win64; x64) AppleWebKit/537.36 (KHTML, like Gecko) Chrome/92.0.4515.159 Safari/537.36",WebKit,Chrome,92.0.4515.159,Windows,10.0,5f461dd6c139dd6b46c7596cbd57cd79
227,1,"""","""","""","""","""",sampler,79,773273,0.0-6.0-73.0,"""","""","""","""","""","""","""","""","""","""","""","""","2021-08-17 18:04:12",197.185.101.89,"Mozilla/5.0 (Windows NT 10.0; Win64; x64) AppleWebKit/537.36 (KHTML, like Gecko) Chrome/92.0.4515.159 Safari/537.36",WebKit,Chrome,92.0.4515.159,Windows,10.0,5f461dd6c139dd6b46c7596cbd57cd79
227,1,"""","""","""","""","""",sampler,80,773273,0.0-6.0-74.0,"""","""","""","""","""","""","""","""","""","""","""","""","2021-08-17 18:04:12",197.185.101.89,"Mozilla/5.0 (Windows NT 10.0; Win64; x64) AppleWebKit/537.36 (KHTML, like Gecko) Chrome/92.0.4515.159 Safari/537.36",WebKit,Chrome,92.0.4515.159,Windows,10.0,5f461dd6c139dd6b46c7596cbd57cd79
227,1,"""","""","""","""","""",sampler,81,773274,0.0-6.0-75.0,"""","""","""","""","""","""","""","""","""","""","""","""","2021-08-17 18:04:12",197.185.101.89,"Mozilla/5.0 (Windows NT 10.0; Win64; x64) AppleWebKit/537.36 (KHTML, like Gecko) Chrome/92.0.4515.159 Safari/537.36",WebKit,Chrome,92.0.4515.159,Windows,10.0,5f461dd6c139dd6b46c7596cbd57cd79
227,1,"""","""","""","""","""",sampler,82,773285,0.0-6.0-76.0,"""","""","""","""","""","""","""","""","""","""","""","""","2021-08-17 18:04:12",197.185.101.89,"Mozilla/5.0 (Windows NT 10.0; Win64; x64) AppleWebKit/537.36 (KHTML, like Gecko) Chrome/92.0.4515.159 Safari/537.36",WebKit,Chrome,92.0.4515.159,Windows,10.0,5f461dd6c139dd6b46c7596cbd57cd79
227,1,"""","""","""","""","""",sampler,83,773286,0.0-6.0-77.0,"""","""","""","""","""","""","""","""","""","""","""","""","2021-08-17 18:04:12",197.185.101.89,"Mozilla/5.0 (Windows NT 10.0; Win64; x64) AppleWebKit/537.36 (KHTML, like Gecko) Chrome/92.0.4515.159 Safari/537.36",WebKit,Chrome,92.0.4515.159,Windows,10.0,5f461dd6c139dd6b46c7596cbd57cd79
227,1,"""","""","""","""","""",sampler,84,773286,0.0-6.0-78.0,"""","""","""","""","""","""","""","""","""","""","""","""","2021-08-17 18:04:12",197.185.101.89,"Mozilla/5.0 (Windows NT 10.0; Win64; x64) AppleWebKit/537.36 (KHTML, like Gecko) Chrome/92.0.4515.159 Safari/537.36",WebKit,Chrome,92.0.4515.159,Windows,10.0,5f461dd6c139dd6b46c7596cbd57cd79
227,1,"""","""","""","""","""",sampler,85,773287,0.0-6.0-79.0,"""","""","""","""","""","""","""","""","""","""","""","""","2021-08-17 18:04:12",197.185.101.89,"Mozilla/5.0 (Windows NT 10.0; Win64; x64) AppleWebKit/537.36 (KHTML, like Gecko) Chrome/92.0.4515.159 Safari/537.36",WebKit,Chrome,92.0.4515.159,Windows,10.0,5f461dd6c139dd6b46c7596cbd57cd79
227,1,"""","""","""","""","""",sampler,86,773288,0.0-6.0-80.0,"""","""","""","""","""","""","""","""","""","""","""","""","2021-08-17 18:04:12",197.185.101.89,"Mozilla/5.0 (Windows NT 10.0; Win64; x64) AppleWebKit/537.36 (KHTML, like Gecko) Chrome/92.0.4515.159 Safari/537.36",WebKit,Chrome,92.0.4515.159,Windows,10.0,5f461dd6c139dd6b46c7596cbd57cd79
227,1,"""","""","""","""","""",sampler,87,773288,0.0-6.0-81.0,"""","""","""","""","""","""","""","""","""","""","""","""","2021-08-17 18:04:12",197.185.101.89,"Mozilla/5.0 (Windows NT 10.0; Win64; x64) AppleWebKit/537.36 (KHTML, like Gecko) Chrome/92.0.4515.159 Safari/537.36",WebKit,Chrome,92.0.4515.159,Windows,10.0,5f461dd6c139dd6b46c7596cbd57cd79
227,1,"""","""","""","""","""",sampler,88,773290,0.0-6.0-82.0,"""","""","""","""","""","""","""","""","""","""","""","""","2021-08-17 18:04:12",197.185.101.89,"Mozilla/5.0 (Windows NT 10.0; Win64; x64) AppleWebKit/537.36 (KHTML, like Gecko) Chrome/92.0.4515.159 Safari/537.36",WebKit,Chrome,92.0.4515.159,Windows,10.0,5f461dd6c139dd6b46c7596cbd57cd79
227,1,"""","""","""","""","""",sampler,89,773291,0.0-6.0-83.0,"""","""","""","""","""","""","""","""","""","""","""","""","2021-08-17 18:04:12",197.185.101.89,"Mozilla/5.0 (Windows NT 10.0; Win64; x64) AppleWebKit/537.36 (KHTML, like Gecko) Chrome/92.0.4515.159 Safari/537.36",WebKit,Chrome,92.0.4515.159,Windows,10.0,5f461dd6c139dd6b46c7596cbd57cd79
227,1,"""","""","""","""","""",sampler,90,773291,0.0-6.0-84.0,"""","""","""","""","""","""","""","""","""","""","""","""","2021-08-17 18:04:12",197.185.101.89,"Mozilla/5.0 (Windows NT 10.0; Win64; x64) AppleWebKit/537.36 (KHTML, like Gecko) Chrome/92.0.4515.159 Safari/537.36",WebKit,Chrome,92.0.4515.159,Windows,10.0,5f461dd6c139dd6b46c7596cbd57cd79
227,1,"""","""","""","""","""",sampler,91,773292,0.0-6.0-85.0,"""","""","""","""","""","""","""","""","""","""","""","""","2021-08-17 18:04:12",197.185.101.89,"Mozilla/5.0 (Windows NT 10.0; Win64; x64) AppleWebKit/537.36 (KHTML, like Gecko) Chrome/92.0.4515.159 Safari/537.36",WebKit,Chrome,92.0.4515.159,Windows,10.0,5f461dd6c139dd6b46c7596cbd57cd79
227,1,"""","""","""","""","""",sampler,92,773292,0.0-6.0-86.0,"""","""","""","""","""","""","""","""","""","""","""","""","2021-08-17 18:04:12",197.185.101.89,"Mozilla/5.0 (Windows NT 10.0; Win64; x64) AppleWebKit/537.36 (KHTML, like Gecko) Chrome/92.0.4515.159 Safari/537.36",WebKit,Chrome,92.0.4515.159,Windows,10.0,5f461dd6c139dd6b46c7596cbd57cd79
227,1,"""","""","""","""","""",sampler,93,773293,0.0-6.0-87.0,"""","""","""","""","""","""","""","""","""","""","""","""","2021-08-17 18:04:12",197.185.101.89,"Mozilla/5.0 (Windows NT 10.0; Win64; x64) AppleWebKit/537.36 (KHTML, like Gecko) Chrome/92.0.4515.159 Safari/537.36",WebKit,Chrome,92.0.4515.159,Windows,10.0,5f461dd6c139dd6b46c7596cbd57cd79
227,1,"""","""","""","""","""",sampler,94,773293,0.0-6.0-88.0,"""","""","""","""","""","""","""","""","""","""","""","""","2021-08-17 18:04:12",197.185.101.89,"Mozilla/5.0 (Windows NT 10.0; Win64; x64) AppleWebKit/537.36 (KHTML, like Gecko) Chrome/92.0.4515.159 Safari/537.36",WebKit,Chrome,92.0.4515.159,Windows,10.0,5f461dd6c139dd6b46c7596cbd57cd79
227,1,"""","""","""","""","""",sampler,95,773294,0.0-6.0-89.0,"""","""","""","""","""","""","""","""","""","""","""","""","2021-08-17 18:04:12",197.185.101.89,"Mozilla/5.0 (Windows NT 10.0; Win64; x64) AppleWebKit/537.36 (KHTML, like Gecko) Chrome/92.0.4515.159 Safari/537.36",WebKit,Chrome,92.0.4515.159,Windows,10.0,5f461dd6c139dd6b46c7596cbd57cd79
227,1,"""","""","""","""","""",sampler,96,773294,0.0-6.0-90.0,"""","""","""","""","""","""","""","""","""","""","""","""","2021-08-17 18:04:12",197.185.101.89,"Mozilla/5.0 (Windows NT 10.0; Win64; x64) AppleWebKit/537.36 (KHTML, like Gecko) Chrome/92.0.4515.159 Safari/537.36",WebKit,Chrome,92.0.4515.159,Windows,10.0,5f461dd6c139dd6b46c7596cbd57cd79
227,1,"""","""","""","""","""",sampler,97,773295,0.0-6.0-91.0,"""","""","""","""","""","""","""","""","""","""","""","""","2021-08-17 18:04:12",197.185.101.89,"Mozilla/5.0 (Windows NT 10.0; Win64; x64) AppleWebKit/537.36 (KHTML, like Gecko) Chrome/92.0.4515.159 Safari/537.36",WebKit,Chrome,92.0.4515.159,Windows,10.0,5f461dd6c139dd6b46c7596cbd57cd79
227,1,"""","""","""","""","""",sampler,98,773295,0.0-6.0-92.0,"""","""","""","""","""","""","""","""","""","""","""","""","2021-08-17 18:04:12",197.185.101.89,"Mozilla/5.0 (Windows NT 10.0; Win64; x64) AppleWebKit/537.36 (KHTML, like Gecko) Chrome/92.0.4515.159 Safari/537.36",WebKit,Chrome,92.0.4515.159,Windows,10.0,5f461dd6c139dd6b46c7596cbd57cd79
227,1,"""","""","""","""","""",sampler,99,773296,0.0-6.0-93.0,"""","""","""","""","""","""","""","""","""","""","""","""","2021-08-17 18:04:12",197.185.101.89,"Mozilla/5.0 (Windows NT 10.0; Win64; x64) AppleWebKit/537.36 (KHTML, like Gecko) Chrome/92.0.4515.159 Safari/537.36",WebKit,Chrome,92.0.4515.159,Windows,10.0,5f461dd6c139dd6b46c7596cbd57cd79
227,1,"""","""","""","""","""",sampler,100,773296,0.0-6.0-94.0,"""","""","""","""","""","""","""","""","""","""","""","""","2021-08-17 18:04:12",197.185.101.89,"Mozilla/5.0 (Windows NT 10.0; Win64; x64) AppleWebKit/537.36 (KHTML, like Gecko) Chrome/92.0.4515.159 Safari/537.36",WebKit,Chrome,92.0.4515.159,Windows,10.0,5f461dd6c139dd6b46c7596cbd57cd79
227,1,"""","""","""","""","""",sampler,101,773297,0.0-6.0-95.0,"""","""","""","""","""","""","""","""","""","""","""","""","2021-08-17 18:04:12",197.185.101.89,"Mozilla/5.0 (Windows NT 10.0; Win64; x64) AppleWebKit/537.36 (KHTML, like Gecko) Chrome/92.0.4515.159 Safari/537.36",WebKit,Chrome,92.0.4515.159,Windows,10.0,5f461dd6c139dd6b46c7596cbd57cd79
227,1,"""","""","""","""","""",sampler,102,773297,0.0-6.0-96.0,"""","""","""","""","""","""","""","""","""","""","""","""","2021-08-17 18:04:12",197.185.101.89,"Mozilla/5.0 (Windows NT 10.0; Win64; x64) AppleWebKit/537.36 (KHTML, like Gecko) Chrome/92.0.4515.159 Safari/537.36",WebKit,Chrome,92.0.4515.159,Windows,10.0,5f461dd6c139dd6b46c7596cbd57cd79
227,1,"""","""","""","""","""",sampler,103,773299,0.0-6.0-97.0,"""","""","""","""","""","""","""","""","""","""","""","""","2021-08-17 18:04:12",197.185.101.89,"Mozilla/5.0 (Windows NT 10.0; Win64; x64) AppleWebKit/537.36 (KHTML, like Gecko) Chrome/92.0.4515.159 Safari/537.36",WebKit,Chrome,92.0.4515.159,Windows,10.0,5f461dd6c139dd6b46c7596cbd57cd79
227,1,"""","""","""","""","""",sampler,104,773300,0.0-6.0-98.0,"""","""","""","""","""","""","""","""","""","""","""","""","2021-08-17 18:04:12",197.185.101.89,"Mozilla/5.0 (Windows NT 10.0; Win64; x64) AppleWebKit/537.36 (KHTML, like Gecko) Chrome/92.0.4515.159 Safari/537.36",WebKit,Chrome,92.0.4515.159,Windows,10.0,5f461dd6c139dd6b46c7596cbd57cd79
227,1,"""","""","""","""","""",sampler,105,773301,0.0-6.0-99.0,"""","""","""","""","""","""","""","""","""","""","""","""","2021-08-17 18:04:12",197.185.101.89,"Mozilla/5.0 (Windows NT 10.0; Win64; x64) AppleWebKit/537.36 (KHTML, like Gecko) Chrome/92.0.4515.159 Safari/537.36",WebKit,Chrome,92.0.4515.159,Windows,10.0,5f461dd6c139dd6b46c7596cbd57cd79
227,1,"""","""","""","""","""",sampler,106,773301,0.0-6.0-100.0,"""","""","""","""","""","""","""","""","""","""","""","""","2021-08-17 18:04:12",197.185.101.89,"Mozilla/5.0 (Windows NT 10.0; Win64; x64) AppleWebKit/537.36 (KHTML, like Gecko) Chrome/92.0.4515.159 Safari/537.36",WebKit,Chrome,92.0.4515.159,Windows,10.0,5f461dd6c139dd6b46c7596cbd57cd79
227,1,"""","""","""","""","""",sampler,107,773302,0.0-6.0-101.0,"""","""","""","""","""","""","""","""","""","""","""","""","2021-08-17 18:04:12",197.185.101.89,"Mozilla/5.0 (Windows NT 10.0; Win64; x64) AppleWebKit/537.36 (KHTML, like Gecko) Chrome/92.0.4515.159 Safari/537.36",WebKit,Chrome,92.0.4515.159,Windows,10.0,5f461dd6c139dd6b46c7596cbd57cd79
227,1,"""","""","""","""","""",sampler,108,773302,0.0-6.0-102.0,"""","""","""","""","""","""","""","""","""","""","""","""","2021-08-17 18:04:12",197.185.101.89,"Mozilla/5.0 (Windows NT 10.0; Win64; x64) AppleWebKit/537.36 (KHTML, like Gecko) Chrome/92.0.4515.159 Safari/537.36",WebKit,Chrome,92.0.4515.159,Windows,10.0,5f461dd6c139dd6b46c7596cbd57cd79
227,1,"""","""","""","""","""",sampler,109,773303,0.0-6.0-103.0,"""","""","""","""","""","""","""","""","""","""","""","""","2021-08-17 18:04:12",197.185.101.89,"Mozilla/5.0 (Windows NT 10.0; Win64; x64) AppleWebKit/537.36 (KHTML, like Gecko) Chrome/92.0.4515.159 Safari/537.36",WebKit,Chrome,92.0.4515.159,Windows,10.0,5f461dd6c139dd6b46c7596cbd57cd79
227,1,"""","""","""","""","""",sampler,110,773303,0.0-6.0-104.0,"""","""","""","""","""","""","""","""","""","""","""","""","2021-08-17 18:04:12",197.185.101.89,"Mozilla/5.0 (Windows NT 10.0; Win64; x64) AppleWebKit/537.36 (KHTML, like Gecko) Chrome/92.0.4515.159 Safari/537.36",WebKit,Chrome,92.0.4515.159,Windows,10.0,5f461dd6c139dd6b46c7596cbd57cd79
227,1,"""","""","""","""","""",sampler,111,773304,0.0-6.0-105.0,"""","""","""","""","""","""","""","""","""","""","""","""","2021-08-17 18:04:12",197.185.101.89,"Mozilla/5.0 (Windows NT 10.0; Win64; x64) AppleWebKit/537.36 (KHTML, like Gecko) Chrome/92.0.4515.159 Safari/537.36",WebKit,Chrome,92.0.4515.159,Windows,10.0,5f461dd6c139dd6b46c7596cbd57cd79
227,1,"""","""","""","""","""",sampler,112,773304,0.0-6.0-106.0,"""","""","""","""","""","""","""","""","""","""","""","""","2021-08-17 18:04:12",197.185.101.89,"Mozilla/5.0 (Windows NT 10.0; Win64; x64) AppleWebKit/537.36 (KHTML, like Gecko) Chrome/92.0.4515.159 Safari/537.36",WebKit,Chrome,92.0.4515.159,Windows,10.0,5f461dd6c139dd6b46c7596cbd57cd79
227,1,"""","""","""","""","""",sampler,113,773305,0.0-6.0-107.0,"""","""","""","""","""","""","""","""","""","""","""","""","2021-08-17 18:04:12",197.185.101.89,"Mozilla/5.0 (Windows NT 10.0; Win64; x64) AppleWebKit/537.36 (KHTML, like Gecko) Chrome/92.0.4515.159 Safari/537.36",WebKit,Chrome,92.0.4515.159,Windows,10.0,5f461dd6c139dd6b46c7596cbd57cd79
227,1,"""","""","""","""","""",sampler,114,773305,0.0-6.0-108.0,"""","""","""","""","""","""","""","""","""","""","""","""","2021-08-17 18:04:12",197.185.101.89,"Mozilla/5.0 (Windows NT 10.0; Win64; x64) AppleWebKit/537.36 (KHTML, like Gecko) Chrome/92.0.4515.159 Safari/537.36",WebKit,Chrome,92.0.4515.159,Windows,10.0,5f461dd6c139dd6b46c7596cbd57cd79
227,1,"""","""","""","""","""",sampler,115,773306,0.0-6.0-109.0,"""","""","""","""","""","""","""","""","""","""","""","""","2021-08-17 18:04:12",197.185.101.89,"Mozilla/5.0 (Windows NT 10.0; Win64; x64) AppleWebKit/537.36 (KHTML, like Gecko) Chrome/92.0.4515.159 Safari/537.36",WebKit,Chrome,92.0.4515.159,Windows,10.0,5f461dd6c139dd6b46c7596cbd57cd79
227,1,"""","""","""","""","""",sampler,116,773306,0.0-6.0-110.0,"""","""","""","""","""","""","""","""","""","""","""","""","2021-08-17 18:04:12",197.185.101.89,"Mozilla/5.0 (Windows NT 10.0; Win64; x64) AppleWebKit/537.36 (KHTML, like Gecko) Chrome/92.0.4515.159 Safari/537.36",WebKit,Chrome,92.0.4515.159,Windows,10.0,5f461dd6c139dd6b46c7596cbd57cd79
227,1,"""","""","""","""","""",sampler,117,773307,0.0-6.0-111.0,"""","""","""","""","""","""","""","""","""","""","""","""","2021-08-17 18:04:12",197.185.101.89,"Mozilla/5.0 (Windows NT 10.0; Win64; x64) AppleWebKit/537.36 (KHTML, like Gecko) Chrome/92.0.4515.159 Safari/537.36",WebKit,Chrome,92.0.4515.159,Windows,10.0,5f461dd6c139dd6b46c7596cbd57cd79
227,1,"""","""","""","""","""",sampler,118,773307,0.0-6.0-112.0,"""","""","""","""","""","""","""","""","""","""","""","""","2021-08-17 18:04:12",197.185.101.89,"Mozilla/5.0 (Windows NT 10.0; Win64; x64) AppleWebKit/537.36 (KHTML, like Gecko) Chrome/92.0.4515.159 Safari/537.36",WebKit,Chrome,92.0.4515.159,Windows,10.0,5f461dd6c139dd6b46c7596cbd57cd79
227,1,"""","""","""","""","""",sampler,119,773308,0.0-6.0-113.0,"""","""","""","""","""","""","""","""","""","""","""","""","2021-08-17 18:04:12",197.185.101.89,"Mozilla/5.0 (Windows NT 10.0; Win64; x64) AppleWebKit/537.36 (KHTML, like Gecko) Chrome/92.0.4515.159 Safari/537.36",WebKit,Chrome,92.0.4515.159,Windows,10.0,5f461dd6c139dd6b46c7596cbd57cd79
227,1,"""","""","""","""","""",sampler,120,773308,0.0-6.0-114.0,"""","""","""","""","""","""","""","""","""","""","""","""","2021-08-17 18:04:12",197.185.101.89,"Mozilla/5.0 (Windows NT 10.0; Win64; x64) AppleWebKit/537.36 (KHTML, like Gecko) Chrome/92.0.4515.159 Safari/537.36",WebKit,Chrome,92.0.4515.159,Windows,10.0,5f461dd6c139dd6b46c7596cbd57cd79
227,1,"""","""","""","""","""",sampler,121,773309,0.0-6.0-115.0,"""","""","""","""","""","""","""","""","""","""","""","""","2021-08-17 18:04:12",197.185.101.89,"Mozilla/5.0 (Windows NT 10.0; Win64; x64) AppleWebKit/537.36 (KHTML, like Gecko) Chrome/92.0.4515.159 Safari/537.36",WebKit,Chrome,92.0.4515.159,Windows,10.0,5f461dd6c139dd6b46c7596cbd57cd79
227,1,"""","""","""","""","""",sampler,122,773309,0.0-6.0-116.0,"""","""","""","""","""","""","""","""","""","""","""","""","2021-08-17 18:04:12",197.185.101.89,"Mozilla/5.0 (Windows NT 10.0; Win64; x64) AppleWebKit/537.36 (KHTML, like Gecko) Chrome/92.0.4515.159 Safari/537.36",WebKit,Chrome,92.0.4515.159,Windows,10.0,5f461dd6c139dd6b46c7596cbd57cd79
227,1,"""","""","""","""","""",sampler,123,773310,0.0-6.0-117.0,"""","""","""","""","""","""","""","""","""","""","""","""","2021-08-17 18:04:12",197.185.101.89,"Mozilla/5.0 (Windows NT 10.0; Win64; x64) AppleWebKit/537.36 (KHTML, like Gecko) Chrome/92.0.4515.159 Safari/537.36",WebKit,Chrome,92.0.4515.159,Windows,10.0,5f461dd6c139dd6b46c7596cbd57cd79
227,1,"""","""","""","""","""",sampler,124,773310,0.0-6.0-118.0,"""","""","""","""","""","""","""","""","""","""","""","""","2021-08-17 18:04:12",197.185.101.89,"Mozilla/5.0 (Windows NT 10.0; Win64; x64) AppleWebKit/537.36 (KHTML, like Gecko) Chrome/92.0.4515.159 Safari/537.36",WebKit,Chrome,92.0.4515.159,Windows,10.0,5f461dd6c139dd6b46c7596cbd57cd79
227,1,"""","""","""","""","""",sampler,125,773311,0.0-6.0-119.0,"""","""","""","""","""","""","""","""","""","""","""","""","2021-08-17 18:04:12",197.185.101.89,"Mozilla/5.0 (Windows NT 10.0; Win64; x64) AppleWebKit/537.36 (KHTML, like Gecko) Chrome/92.0.4515.159 Safari/537.36",WebKit,Chrome,92.0.4515.159,Windows,10.0,5f461dd6c139dd6b46c7596cbd57cd79
227,1,"""","""","""","""","""",sampler,126,773311,0.0-6.0-120.0,"""","""","""","""","""","""","""","""","""","""","""","""","2021-08-17 18:04:12",197.185.101.89,"Mozilla/5.0 (Windows NT 10.0; Win64; x64) AppleWebKit/537.36 (KHTML, like Gecko) Chrome/92.0.4515.159 Safari/537.36",WebKit,Chrome,92.0.4515.159,Windows,10.0,5f461dd6c139dd6b46c7596cbd57cd79
227,1,"""","""","""","""","""",sampler,127,773312,0.0-6.0-121.0,"""","""","""","""","""","""","""","""","""","""","""","""","2021-08-17 18:04:12",197.185.101.89,"Mozilla/5.0 (Windows NT 10.0; Win64; x64) AppleWebKit/537.36 (KHTML, like Gecko) Chrome/92.0.4515.159 Safari/537.36",WebKit,Chrome,92.0.4515.159,Windows,10.0,5f461dd6c139dd6b46c7596cbd57cd79
227,1,"""","""","""","""","""",sampler,128,773313,0.0-6.0-122.0,"""","""","""","""","""","""","""","""","""","""","""","""","2021-08-17 18:04:12",197.185.101.89,"Mozilla/5.0 (Windows NT 10.0; Win64; x64) AppleWebKit/537.36 (KHTML, like Gecko) Chrome/92.0.4515.159 Safari/537.36",WebKit,Chrome,92.0.4515.159,Windows,10.0,5f461dd6c139dd6b46c7596cbd57cd79
227,1,"""","""","""","""","""",sampler,129,773313,0.0-6.0-123.0,"""","""","""","""","""","""","""","""","""","""","""","""","2021-08-17 18:04:12",197.185.101.89,"Mozilla/5.0 (Windows NT 10.0; Win64; x64) AppleWebKit/537.36 (KHTML, like Gecko) Chrome/92.0.4515.159 Safari/537.36",WebKit,Chrome,92.0.4515.159,Windows,10.0,5f461dd6c139dd6b46c7596cbd57cd79
227,1,"""","""","""","""","""",sampler,130,773314,0.0-6.0-124.0,"""","""","""","""","""","""","""","""","""","""","""","""","2021-08-17 18:04:12",197.185.101.89,"Mozilla/5.0 (Windows NT 10.0; Win64; x64) AppleWebKit/537.36 (KHTML, like Gecko) Chrome/92.0.4515.159 Safari/537.36",WebKit,Chrome,92.0.4515.159,Windows,10.0,5f461dd6c139dd6b46c7596cbd57cd79
227,1,"""","""","""","""","""",sampler,131,773315,0.0-6.0-125.0,"""","""","""","""","""","""","""","""","""","""","""","""","2021-08-17 18:04:12",197.185.101.89,"Mozilla/5.0 (Windows NT 10.0; Win64; x64) AppleWebKit/537.36 (KHTML, like Gecko) Chrome/92.0.4515.159 Safari/537.36",WebKit,Chrome,92.0.4515.159,Windows,10.0,5f461dd6c139dd6b46c7596cbd57cd79
227,1,"""","""","""","""","""",sampler,132,773316,0.0-6.0-126.0,"""","""","""","""","""","""","""","""","""","""","""","""","2021-08-17 18:04:12",197.185.101.89,"Mozilla/5.0 (Windows NT 10.0; Win64; x64) AppleWebKit/537.36 (KHTML, like Gecko) Chrome/92.0.4515.159 Safari/537.36",WebKit,Chrome,92.0.4515.159,Windows,10.0,5f461dd6c139dd6b46c7596cbd57cd79
227,1,"""","""","""","""","""",sampler,133,773317,0.0-6.0-127.0,"""","""","""","""","""","""","""","""","""","""","""","""","2021-08-17 18:04:12",197.185.101.89,"Mozilla/5.0 (Windows NT 10.0; Win64; x64) AppleWebKit/537.36 (KHTML, like Gecko) Chrome/92.0.4515.159 Safari/537.36",WebKit,Chrome,92.0.4515.159,Windows,10.0,5f461dd6c139dd6b46c7596cbd57cd79
227,1,"""","""","""","""","""",sampler,134,773318,0.0-6.0-128.0,"""","""","""","""","""","""","""","""","""","""","""","""","2021-08-17 18:04:12",197.185.101.89,"Mozilla/5.0 (Windows NT 10.0; Win64; x64) AppleWebKit/537.36 (KHTML, like Gecko) Chrome/92.0.4515.159 Safari/537.36",WebKit,Chrome,92.0.4515.159,Windows,10.0,5f461dd6c139dd6b46c7596cbd57cd79
227,1,"""","""","""","""","""",sampler,135,773318,0.0-6.0-129.0,"""","""","""","""","""","""","""","""","""","""","""","""","2021-08-17 18:04:12",197.185.101.89,"Mozilla/5.0 (Windows NT 10.0; Win64; x64) AppleWebKit/537.36 (KHTML, like Gecko) Chrome/92.0.4515.159 Safari/537.36",WebKit,Chrome,92.0.4515.159,Windows,10.0,5f461dd6c139dd6b46c7596cbd57cd79
227,1,"""","""","""","""","""",sampler,136,773319,0.0-6.0-130.0,"""","""","""","""","""","""","""","""","""","""","""","""","2021-08-17 18:04:12",197.185.101.89,"Mozilla/5.0 (Windows NT 10.0; Win64; x64) AppleWebKit/537.36 (KHTML, like Gecko) Chrome/92.0.4515.159 Safari/537.36",WebKit,Chrome,92.0.4515.159,Windows,10.0,5f461dd6c139dd6b46c7596cbd57cd79
227,1,"""","""","""","""","""",sampler,137,773319,0.0-6.0-131.0,"""","""","""","""","""","""","""","""","""","""","""","""","2021-08-17 18:04:12",197.185.101.89,"Mozilla/5.0 (Windows NT 10.0; Win64; x64) AppleWebKit/537.36 (KHTML, like Gecko) Chrome/92.0.4515.159 Safari/537.36",WebKit,Chrome,92.0.4515.159,Windows,10.0,5f461dd6c139dd6b46c7596cbd57cd79
227,1,"""","""","""","""","""",sampler,138,773320,0.0-6.0-132.0,"""","""","""","""","""","""","""","""","""","""","""","""","2021-08-17 18:04:12",197.185.101.89,"Mozilla/5.0 (Windows NT 10.0; Win64; x64) AppleWebKit/537.36 (KHTML, like Gecko) Chrome/92.0.4515.159 Safari/537.36",WebKit,Chrome,92.0.4515.159,Windows,10.0,5f461dd6c139dd6b46c7596cbd57cd79
227,1,"""","""","""","""","""",sampler,139,773320,0.0-6.0-133.0,"""","""","""","""","""","""","""","""","""","""","""","""","2021-08-17 18:04:12",197.185.101.89,"Mozilla/5.0 (Windows NT 10.0; Win64; x64) AppleWebKit/537.36 (KHTML, like Gecko) Chrome/92.0.4515.159 Safari/537.36",WebKit,Chrome,92.0.4515.159,Windows,10.0,5f461dd6c139dd6b46c7596cbd57cd79
227,1,"""","""","""","""","""",sampler,140,773321,0.0-6.0-134.0,"""","""","""","""","""","""","""","""","""","""","""","""","2021-08-17 18:04:12",197.185.101.89,"Mozilla/5.0 (Windows NT 10.0; Win64; x64) AppleWebKit/537.36 (KHTML, like Gecko) Chrome/92.0.4515.159 Safari/537.36",WebKit,Chrome,92.0.4515.159,Windows,10.0,5f461dd6c139dd6b46c7596cbd57cd79
227,1,"""","""","""","""","""",sampler,141,773321,0.0-6.0-135.0,"""","""","""","""","""","""","""","""","""","""","""","""","2021-08-17 18:04:12",197.185.101.89,"Mozilla/5.0 (Windows NT 10.0; Win64; x64) AppleWebKit/537.36 (KHTML, like Gecko) Chrome/92.0.4515.159 Safari/537.36",WebKit,Chrome,92.0.4515.159,Windows,10.0,5f461dd6c139dd6b46c7596cbd57cd79
227,1,"""","""","""","""","""",sampler,142,773322,0.0-6.0-136.0,"""","""","""","""","""","""","""","""","""","""","""","""","2021-08-17 18:04:12",197.185.101.89,"Mozilla/5.0 (Windows NT 10.0; Win64; x64) AppleWebKit/537.36 (KHTML, like Gecko) Chrome/92.0.4515.159 Safari/537.36",WebKit,Chrome,92.0.4515.159,Windows,10.0,5f461dd6c139dd6b46c7596cbd57cd79
227,1,"""","""","""","""","""",sampler,143,773326,0.0-6.0-137.0,"""","""","""","""","""","""","""","""","""","""","""","""","2021-08-17 18:04:12",197.185.101.89,"Mozilla/5.0 (Windows NT 10.0; Win64; x64) AppleWebKit/537.36 (KHTML, like Gecko) Chrome/92.0.4515.159 Safari/537.36",WebKit,Chrome,92.0.4515.159,Windows,10.0,5f461dd6c139dd6b46c7596cbd57cd79
227,1,"""","""","""","""","""",sampler,144,773326,0.0-6.0-138.0,"""","""","""","""","""","""","""","""","""","""","""","""","2021-08-17 18:04:12",197.185.101.89,"Mozilla/5.0 (Windows NT 10.0; Win64; x64) AppleWebKit/537.36 (KHTML, like Gecko) Chrome/92.0.4515.159 Safari/537.36",WebKit,Chrome,92.0.4515.159,Windows,10.0,5f461dd6c139dd6b46c7596cbd57cd79
227,1,"""","""","""","""","""",sampler,145,773327,0.0-6.0-139.0,"""","""","""","""","""","""","""","""","""","""","""","""","2021-08-17 18:04:12",197.185.101.89,"Mozilla/5.0 (Windows NT 10.0; Win64; x64) AppleWebKit/537.36 (KHTML, like Gecko) Chrome/92.0.4515.159 Safari/537.36",WebKit,Chrome,92.0.4515.159,Windows,10.0,5f461dd6c139dd6b46c7596cbd57cd79
227,1,"""","""","""","""","""",sampler,146,773327,0.0-6.0-140.0,"""","""","""","""","""","""","""","""","""","""","""","""","2021-08-17 18:04:12",197.185.101.89,"Mozilla/5.0 (Windows NT 10.0; Win64; x64) AppleWebKit/537.36 (KHTML, like Gecko) Chrome/92.0.4515.159 Safari/537.36",WebKit,Chrome,92.0.4515.159,Windows,10.0,5f461dd6c139dd6b46c7596cbd57cd79
227,1,"""","""","""","""","""",sampler,147,773328,0.0-6.0-141.0,"""","""","""","""","""","""","""","""","""","""","""","""","2021-08-17 18:04:12",197.185.101.89,"Mozilla/5.0 (Windows NT 10.0; Win64; x64) AppleWebKit/537.36 (KHTML, like Gecko) Chrome/92.0.4515.159 Safari/537.36",WebKit,Chrome,92.0.4515.159,Windows,10.0,5f461dd6c139dd6b46c7596cbd57cd79
227,1,"""","""","""","""","""",sampler,148,773329,0.0-6.0-142.0,"""","""","""","""","""","""","""","""","""","""","""","""","2021-08-17 18:04:12",197.185.101.89,"Mozilla/5.0 (Windows NT 10.0; Win64; x64) AppleWebKit/537.36 (KHTML, like Gecko) Chrome/92.0.4515.159 Safari/537.36",WebKit,Chrome,92.0.4515.159,Windows,10.0,5f461dd6c139dd6b46c7596cbd57cd79
227,1,"""","""","""","""","""",sampler,149,773329,0.0-6.0-143.0,"""","""","""","""","""","""","""","""","""","""","""","""","2021-08-17 18:04:12",197.185.101.89,"Mozilla/5.0 (Windows NT 10.0; Win64; x64) AppleWebKit/537.36 (KHTML, like Gecko) Chrome/92.0.4515.159 Safari/537.36",WebKit,Chrome,92.0.4515.159,Windows,10.0,5f461dd6c139dd6b46c7596cbd57cd79
227,1,"""","""","""","""","""",sampler,150,773330,0.0-6.0-144.0,"""","""","""","""","""","""","""","""","""","""","""","""","2021-08-17 18:04:12",197.185.101.89,"Mozilla/5.0 (Windows NT 10.0; Win64; x64) AppleWebKit/537.36 (KHTML, like Gecko) Chrome/92.0.4515.159 Safari/537.36",WebKit,Chrome,92.0.4515.159,Windows,10.0,5f461dd6c139dd6b46c7596cbd57cd79
227,1,"""","""","""","""","""",sampler,151,773331,0.0-6.0-145.0,"""","""","""","""","""","""","""","""","""","""","""","""","2021-08-17 18:04:12",197.185.101.89,"Mozilla/5.0 (Windows NT 10.0; Win64; x64) AppleWebKit/537.36 (KHTML, like Gecko) Chrome/92.0.4515.159 Safari/537.36",WebKit,Chrome,92.0.4515.159,Windows,10.0,5f461dd6c139dd6b46c7596cbd57cd79
227,1,"""","""","""","""","""",sampler,152,773332,0.0-6.0-146.0,"""","""","""","""","""","""","""","""","""","""","""","""","2021-08-17 18:04:12",197.185.101.89,"Mozilla/5.0 (Windows NT 10.0; Win64; x64) AppleWebKit/537.36 (KHTML, like Gecko) Chrome/92.0.4515.159 Safari/537.36",WebKit,Chrome,92.0.4515.159,Windows,10.0,5f461dd6c139dd6b46c7596cbd57cd79
227,1,"""","""","""","""","""",sampler,153,773333,0.0-6.0-147.0,"""","""","""","""","""","""","""","""","""","""","""","""","2021-08-17 18:04:12",197.185.101.89,"Mozilla/5.0 (Windows NT 10.0; Win64; x64) AppleWebKit/537.36 (KHTML, like Gecko) Chrome/92.0.4515.159 Safari/537.36",WebKit,Chrome,92.0.4515.159,Windows,10.0,5f461dd6c139dd6b46c7596cbd57cd79
227,1,"""","""","""","""","""",sampler,154,773334,0.0-6.0-148.0,"""","""","""","""","""","""","""","""","""","""","""","""","2021-08-17 18:04:12",197.185.101.89,"Mozilla/5.0 (Windows NT 10.0; Win64; x64) AppleWebKit/537.36 (KHTML, like Gecko) Chrome/92.0.4515.159 Safari/537.36",WebKit,Chrome,92.0.4515.159,Windows,10.0,5f461dd6c139dd6b46c7596cbd57cd79
227,1,"""","""","""","""","""",sampler,155,773334,0.0-6.0-149.0,"""","""","""","""","""","""","""","""","""","""","""","""","2021-08-17 18:04:12",197.185.101.89,"Mozilla/5.0 (Windows NT 10.0; Win64; x64) AppleWebKit/537.36 (KHTML, like Gecko) Chrome/92.0.4515.159 Safari/537.36",WebKit,Chrome,92.0.4515.159,Windows,10.0,5f461dd6c139dd6b46c7596cbd57cd79
227,1,"""","""","""","""","""",sampler,156,773335,0.0-6.0-150.0,"""","""","""","""","""","""","""","""","""","""","""","""","2021-08-17 18:04:12",197.185.101.89,"Mozilla/5.0 (Windows NT 10.0; Win64; x64) AppleWebKit/537.36 (KHTML, like Gecko) Chrome/92.0.4515.159 Safari/537.36",WebKit,Chrome,92.0.4515.159,Windows,10.0,5f461dd6c139dd6b46c7596cbd57cd79
227,1,"""","""","""","""","""",sampler,157,773336,0.0-6.0-151.0,"""","""","""","""","""","""","""","""","""","""","""","""","2021-08-17 18:04:12",197.185.101.89,"Mozilla/5.0 (Windows NT 10.0; Win64; x64) AppleWebKit/537.36 (KHTML, like Gecko) Chrome/92.0.4515.159 Safari/537.36",WebKit,Chrome,92.0.4515.159,Windows,10.0,5f461dd6c139dd6b46c7596cbd57cd79
227,1,"""","""","""","""","""",sampler,158,773336,0.0-6.0-152.0,"""","""","""","""","""","""","""","""","""","""","""","""","2021-08-17 18:04:12",197.185.101.89,"Mozilla/5.0 (Windows NT 10.0; Win64; x64) AppleWebKit/537.36 (KHTML, like Gecko) Chrome/92.0.4515.159 Safari/537.36",WebKit,Chrome,92.0.4515.159,Windows,10.0,5f461dd6c139dd6b46c7596cbd57cd79
227,1,"""","""","""","""","""",sampler,159,773337,0.0-6.0-153.0,"""","""","""","""","""","""","""","""","""","""","""","""","2021-08-17 18:04:12",197.185.101.89,"Mozilla/5.0 (Windows NT 10.0; Win64; x64) AppleWebKit/537.36 (KHTML, like Gecko) Chrome/92.0.4515.159 Safari/537.36",WebKit,Chrome,92.0.4515.159,Windows,10.0,5f461dd6c139dd6b46c7596cbd57cd79
227,1,"""","""","""","""","""",sampler,160,773337,0.0-6.0-154.0,"""","""","""","""","""","""","""","""","""","""","""","""","2021-08-17 18:04:12",197.185.101.89,"Mozilla/5.0 (Windows NT 10.0; Win64; x64) AppleWebKit/537.36 (KHTML, like Gecko) Chrome/92.0.4515.159 Safari/537.36",WebKit,Chrome,92.0.4515.159,Windows,10.0,5f461dd6c139dd6b46c7596cbd57cd79
227,1,"""","""","""","""","""",sampler,161,773338,0.0-6.0-155.0,"""","""","""","""","""","""","""","""","""","""","""","""","2021-08-17 18:04:12",197.185.101.89,"Mozilla/5.0 (Windows NT 10.0; Win64; x64) AppleWebKit/537.36 (KHTML, like Gecko) Chrome/92.0.4515.159 Safari/537.36",WebKit,Chrome,92.0.4515.159,Windows,10.0,5f461dd6c139dd6b46c7596cbd57cd79
227,1,"""","""","""","""","""",sampler,162,773338,0.0-6.0-156.0,"""","""","""","""","""","""","""","""","""","""","""","""","2021-08-17 18:04:12",197.185.101.89,"Mozilla/5.0 (Windows NT 10.0; Win64; x64) AppleWebKit/537.36 (KHTML, like Gecko) Chrome/92.0.4515.159 Safari/537.36",WebKit,Chrome,92.0.4515.159,Windows,10.0,5f461dd6c139dd6b46c7596cbd57cd79
227,1,"""","""","""","""","""",sampler,163,773339,0.0-6.0-157.0,"""","""","""","""","""","""","""","""","""","""","""","""","2021-08-17 18:04:12",197.185.101.89,"Mozilla/5.0 (Windows NT 10.0; Win64; x64) AppleWebKit/537.36 (KHTML, like Gecko) Chrome/92.0.4515.159 Safari/537.36",WebKit,Chrome,92.0.4515.159,Windows,10.0,5f461dd6c139dd6b46c7596cbd57cd79
227,1,"""","""","""","""","""",sampler,164,773339,0.0-6.0-158.0,"""","""","""","""","""","""","""","""","""","""","""","""","2021-08-17 18:04:12",197.185.101.89,"Mozilla/5.0 (Windows NT 10.0; Win64; x64) AppleWebKit/537.36 (KHTML, like Gecko) Chrome/92.0.4515.159 Safari/537.36",WebKit,Chrome,92.0.4515.159,Windows,10.0,5f461dd6c139dd6b46c7596cbd57cd79
227,1,"""","""","""","""","""",sampler,165,773340,0.0-6.0-159.0,"""","""","""","""","""","""","""","""","""","""","""","""","2021-08-17 18:04:12",197.185.101.89,"Mozilla/5.0 (Windows NT 10.0; Win64; x64) AppleWebKit/537.36 (KHTML, like Gecko) Chrome/92.0.4515.159 Safari/537.36",WebKit,Chrome,92.0.4515.159,Windows,10.0,5f461dd6c139dd6b46c7596cbd57cd79
227,1,"""","""","""","""","""",sampler,166,773340,0.0-6.0-160.0,"""","""","""","""","""","""","""","""","""","""","""","""","2021-08-17 18:04:12",197.185.101.89,"Mozilla/5.0 (Windows NT 10.0; Win64; x64) AppleWebKit/537.36 (KHTML, like Gecko) Chrome/92.0.4515.159 Safari/537.36",WebKit,Chrome,92.0.4515.159,Windows,10.0,5f461dd6c139dd6b46c7596cbd57cd79
227,1,"""","""","""","""","""",sampler,167,773341,0.0-6.0-161.0,"""","""","""","""","""","""","""","""","""","""","""","""","2021-08-17 18:04:12",197.185.101.89,"Mozilla/5.0 (Windows NT 10.0; Win64; x64) AppleWebKit/537.36 (KHTML, like Gecko) Chrome/92.0.4515.159 Safari/537.36",WebKit,Chrome,92.0.4515.159,Windows,10.0,5f461dd6c139dd6b46c7596cbd57cd79
227,1,"""","""","""","""","""",sampler,168,773342,0.0-6.0-162.0,"""","""","""","""","""","""","""","""","""","""","""","""","2021-08-17 18:04:12",197.185.101.89,"Mozilla/5.0 (Windows NT 10.0; Win64; x64) AppleWebKit/537.36 (KHTML, like Gecko) Chrome/92.0.4515.159 Safari/537.36",WebKit,Chrome,92.0.4515.159,Windows,10.0,5f461dd6c139dd6b46c7596cbd57cd79
227,1,"""","""","""","""","""",sampler,169,773342,0.0-6.0-163.0,"""","""","""","""","""","""","""","""","""","""","""","""","2021-08-17 18:04:12",197.185.101.89,"Mozilla/5.0 (Windows NT 10.0; Win64; x64) AppleWebKit/537.36 (KHTML, like Gecko) Chrome/92.0.4515.159 Safari/537.36",WebKit,Chrome,92.0.4515.159,Windows,10.0,5f461dd6c139dd6b46c7596cbd57cd79
227,1,"""","""","""","""","""",sampler,170,773343,0.0-6.0-164.0,"""","""","""","""","""","""","""","""","""","""","""","""","2021-08-17 18:04:12",197.185.101.89,"Mozilla/5.0 (Windows NT 10.0; Win64; x64) AppleWebKit/537.36 (KHTML, like Gecko) Chrome/92.0.4515.159 Safari/537.36",WebKit,Chrome,92.0.4515.159,Windows,10.0,5f461dd6c139dd6b46c7596cbd57cd79
227,1,"""","""","""","""","""",sampler,171,773343,0.0-6.0-165.0,"""","""","""","""","""","""","""","""","""","""","""","""","2021-08-17 18:04:12",197.185.101.89,"Mozilla/5.0 (Windows NT 10.0; Win64; x64) AppleWebKit/537.36 (KHTML, like Gecko) Chrome/92.0.4515.159 Safari/537.36",WebKit,Chrome,92.0.4515.159,Windows,10.0,5f461dd6c139dd6b46c7596cbd57cd79
227,1,"""","""","""","""","""",sampler,172,773344,0.0-6.0-166.0,"""","""","""","""","""","""","""","""","""","""","""","""","2021-08-17 18:04:12",197.185.101.89,"Mozilla/5.0 (Windows NT 10.0; Win64; x64) AppleWebKit/537.36 (KHTML, like Gecko) Chrome/92.0.4515.159 Safari/537.36",WebKit,Chrome,92.0.4515.159,Windows,10.0,5f461dd6c139dd6b46c7596cbd57cd79
227,1,"""","""","""","""","""",sampler,173,773344,0.0-6.0-167.0,"""","""","""","""","""","""","""","""","""","""","""","""","2021-08-17 18:04:12",197.185.101.89,"Mozilla/5.0 (Windows NT 10.0; Win64; x64) AppleWebKit/537.36 (KHTML, like Gecko) Chrome/92.0.4515.159 Safari/537.36",WebKit,Chrome,92.0.4515.159,Windows,10.0,5f461dd6c139dd6b46c7596cbd57cd79
227,1,"""","""","""","""","""",sampler,174,773345,0.0-6.0-168.0,"""","""","""","""","""","""","""","""","""","""","""","""","2021-08-17 18:04:12",197.185.101.89,"Mozilla/5.0 (Windows NT 10.0; Win64; x64) AppleWebKit/537.36 (KHTML, like Gecko) Chrome/92.0.4515.159 Safari/537.36",WebKit,Chrome,92.0.4515.159,Windows,10.0,5f461dd6c139dd6b46c7596cbd57cd79
227,1,"""","""","""","""","""",sampler,175,773345,0.0-6.0-169.0,"""","""","""","""","""","""","""","""","""","""","""","""","2021-08-17 18:04:12",197.185.101.89,"Mozilla/5.0 (Windows NT 10.0; Win64; x64) AppleWebKit/537.36 (KHTML, like Gecko) Chrome/92.0.4515.159 Safari/537.36",WebKit,Chrome,92.0.4515.159,Windows,10.0,5f461dd6c139dd6b46c7596cbd57cd79
227,1,"""","""","""","""","""",sampler,176,773346,0.0-6.0-170.0,"""","""","""","""","""","""","""","""","""","""","""","""","2021-08-17 18:04:12",197.185.101.89,"Mozilla/5.0 (Windows NT 10.0; Win64; x64) AppleWebKit/537.36 (KHTML, like Gecko) Chrome/92.0.4515.159 Safari/537.36",WebKit,Chrome,92.0.4515.159,Windows,10.0,5f461dd6c139dd6b46c7596cbd57cd79
227,1,"""","""","""","""","""",sampler,177,773347,0.0-6.0-171.0,"""","""","""","""","""","""","""","""","""","""","""","""","2021-08-17 18:04:12",197.185.101.89,"Mozilla/5.0 (Windows NT 10.0; Win64; x64) AppleWebKit/537.36 (KHTML, like Gecko) Chrome/92.0.4515.159 Safari/537.36",WebKit,Chrome,92.0.4515.159,Windows,10.0,5f461dd6c139dd6b46c7596cbd57cd79
227,1,"""","""","""","""","""",sampler,178,773347,0.0-6.0-172.0,"""","""","""","""","""","""","""","""","""","""","""","""","2021-08-17 18:04:12",197.185.101.89,"Mozilla/5.0 (Windows NT 10.0; Win64; x64) AppleWebKit/537.36 (KHTML, like Gecko) Chrome/92.0.4515.159 Safari/537.36",WebKit,Chrome,92.0.4515.159,Windows,10.0,5f461dd6c139dd6b46c7596cbd57cd79
227,1,"""","""","""","""","""",sampler,179,773348,0.0-6.0-173.0,"""","""","""","""","""","""","""","""","""","""","""","""","2021-08-17 18:04:12",197.185.101.89,"Mozilla/5.0 (Windows NT 10.0; Win64; x64) AppleWebKit/537.36 (KHTML, like Gecko) Chrome/92.0.4515.159 Safari/537.36",WebKit,Chrome,92.0.4515.159,Windows,10.0,5f461dd6c139dd6b46c7596cbd57cd79
227,1,"""","""","""","""","""",sampler,180,773349,0.0-6.0-174.0,"""","""","""","""","""","""","""","""","""","""","""","""","2021-08-17 18:04:12",197.185.101.89,"Mozilla/5.0 (Windows NT 10.0; Win64; x64) AppleWebKit/537.36 (KHTML, like Gecko) Chrome/92.0.4515.159 Safari/537.36",WebKit,Chrome,92.0.4515.159,Windows,10.0,5f461dd6c139dd6b46c7596cbd57cd79
227,1,"""","""","""","""","""",sampler,181,773350,0.0-6.0-175.0,"""","""","""","""","""","""","""","""","""","""","""","""","2021-08-17 18:04:12",197.185.101.89,"Mozilla/5.0 (Windows NT 10.0; Win64; x64) AppleWebKit/537.36 (KHTML, like Gecko) Chrome/92.0.4515.159 Safari/537.36",WebKit,Chrome,92.0.4515.159,Windows,10.0,5f461dd6c139dd6b46c7596cbd57cd79
227,1,"""","""","""","""","""",sampler,182,773351,0.0-6.0-176.0,"""","""","""","""","""","""","""","""","""","""","""","""","2021-08-17 18:04:12",197.185.101.89,"Mozilla/5.0 (Windows NT 10.0; Win64; x64) AppleWebKit/537.36 (KHTML, like Gecko) Chrome/92.0.4515.159 Safari/537.36",WebKit,Chrome,92.0.4515.159,Windows,10.0,5f461dd6c139dd6b46c7596cbd57cd79
227,1,"""","""","""","""","""",sampler,183,773351,0.0-6.0-177.0,"""","""","""","""","""","""","""","""","""","""","""","""","2021-08-17 18:04:12",197.185.101.89,"Mozilla/5.0 (Windows NT 10.0; Win64; x64) AppleWebKit/537.36 (KHTML, like Gecko) Chrome/92.0.4515.159 Safari/537.36",WebKit,Chrome,92.0.4515.159,Windows,10.0,5f461dd6c139dd6b46c7596cbd57cd79
227,1,"""","""","""","""","""",sampler,184,773352,0.0-6.0-178.0,"""","""","""","""","""","""","""","""","""","""","""","""","2021-08-17 18:04:12",197.185.101.89,"Mozilla/5.0 (Windows NT 10.0; Win64; x64) AppleWebKit/537.36 (KHTML, like Gecko) Chrome/92.0.4515.159 Safari/537.36",WebKit,Chrome,92.0.4515.159,Windows,10.0,5f461dd6c139dd6b46c7596cbd57cd79
227,1,"""","""","""","""","""",sampler,185,773353,0.0-6.0-179.0,"""","""","""","""","""","""","""","""","""","""","""","""","2021-08-17 18:04:12",197.185.101.89,"Mozilla/5.0 (Windows NT 10.0; Win64; x64) AppleWebKit/537.36 (KHTML, like Gecko) Chrome/92.0.4515.159 Safari/537.36",WebKit,Chrome,92.0.4515.159,Windows,10.0,5f461dd6c139dd6b46c7596cbd57cd79
227,1,"""","""","""","""","""",sampler,186,773353,0.0-6.0-180.0,"""","""","""","""","""","""","""","""","""","""","""","""","2021-08-17 18:04:12",197.185.101.89,"Mozilla/5.0 (Windows NT 10.0; Win64; x64) AppleWebKit/537.36 (KHTML, like Gecko) Chrome/92.0.4515.159 Safari/537.36",WebKit,Chrome,92.0.4515.159,Windows,10.0,5f461dd6c139dd6b46c7596cbd57cd79
227,1,"""","""","""","""","""",sampler,187,773354,0.0-6.0-181.0,"""","""","""","""","""","""","""","""","""","""","""","""","2021-08-17 18:04:12",197.185.101.89,"Mozilla/5.0 (Windows NT 10.0; Win64; x64) AppleWebKit/537.36 (KHTML, like Gecko) Chrome/92.0.4515.159 Safari/537.36",WebKit,Chrome,92.0.4515.159,Windows,10.0,5f461dd6c139dd6b46c7596cbd57cd79
227,1,"""","""","""","""","""",sampler,188,773354,0.0-6.0-182.0,"""","""","""","""","""","""","""","""","""","""","""","""","2021-08-17 18:04:12",197.185.101.89,"Mozilla/5.0 (Windows NT 10.0; Win64; x64) AppleWebKit/537.36 (KHTML, like Gecko) Chrome/92.0.4515.159 Safari/537.36",WebKit,Chrome,92.0.4515.159,Windows,10.0,5f461dd6c139dd6b46c7596cbd57cd79
227,1,"""","""","""","""","""",sampler,189,773355,0.0-6.0-183.0,"""","""","""","""","""","""","""","""","""","""","""","""","2021-08-17 18:04:12",197.185.101.89,"Mozilla/5.0 (Windows NT 10.0; Win64; x64) AppleWebKit/537.36 (KHTML, like Gecko) Chrome/92.0.4515.159 Safari/537.36",WebKit,Chrome,92.0.4515.159,Windows,10.0,5f461dd6c139dd6b46c7596cbd57cd79
227,1,"""","""","""","""","""",sampler,190,773355,0.0-6.0-184.0,"""","""","""","""","""","""","""","""","""","""","""","""","2021-08-17 18:04:12",197.185.101.89,"Mozilla/5.0 (Windows NT 10.0; Win64; x64) AppleWebKit/537.36 (KHTML, like Gecko) Chrome/92.0.4515.159 Safari/537.36",WebKit,Chrome,92.0.4515.159,Windows,10.0,5f461dd6c139dd6b46c7596cbd57cd79
227,1,"""","""","""","""","""",sampler,191,773356,0.0-6.0-185.0,"""","""","""","""","""","""","""","""","""","""","""","""","2021-08-17 18:04:12",197.185.101.89,"Mozilla/5.0 (Windows NT 10.0; Win64; x64) AppleWebKit/537.36 (KHTML, like Gecko) Chrome/92.0.4515.159 Safari/537.36",WebKit,Chrome,92.0.4515.159,Windows,10.0,5f461dd6c139dd6b46c7596cbd57cd79
227,1,"""","""","""","""","""",sampler,192,773357,0.0-6.0-186.0,"""","""","""","""","""","""","""","""","""","""","""","""","2021-08-17 18:04:12",197.185.101.89,"Mozilla/5.0 (Windows NT 10.0; Win64; x64) AppleWebKit/537.36 (KHTML, like Gecko) Chrome/92.0.4515.159 Safari/537.36",WebKit,Chrome,92.0.4515.159,Windows,10.0,5f461dd6c139dd6b46c7596cbd57cd79
227,1,"""","""","""","""","""",sampler,193,773357,0.0-6.0-187.0,"""","""","""","""","""","""","""","""","""","""","""","""","2021-08-17 18:04:12",197.185.101.89,"Mozilla/5.0 (Windows NT 10.0; Win64; x64) AppleWebKit/537.36 (KHTML, like Gecko) Chrome/92.0.4515.159 Safari/537.36",WebKit,Chrome,92.0.4515.159,Windows,10.0,5f461dd6c139dd6b46c7596cbd57cd79
227,1,"""","""","""","""","""",sampler,194,773358,0.0-6.0-188.0,"""","""","""","""","""","""","""","""","""","""","""","""","2021-08-17 18:04:12",197.185.101.89,"Mozilla/5.0 (Windows NT 10.0; Win64; x64) AppleWebKit/537.36 (KHTML, like Gecko) Chrome/92.0.4515.159 Safari/537.36",WebKit,Chrome,92.0.4515.159,Windows,10.0,5f461dd6c139dd6b46c7596cbd57cd79
227,1,"""","""","""","""","""",sampler,195,773358,0.0-6.0-189.0,"""","""","""","""","""","""","""","""","""","""","""","""","2021-08-17 18:04:12",197.185.101.89,"Mozilla/5.0 (Windows NT 10.0; Win64; x64) AppleWebKit/537.36 (KHTML, like Gecko) Chrome/92.0.4515.159 Safari/537.36",WebKit,Chrome,92.0.4515.159,Windows,10.0,5f461dd6c139dd6b46c7596cbd57cd79
227,1,"""","""","""","""","""",sampler,196,773359,0.0-6.0-190.0,"""","""","""","""","""","""","""","""","""","""","""","""","2021-08-17 18:04:12",197.185.101.89,"Mozilla/5.0 (Windows NT 10.0; Win64; x64) AppleWebKit/537.36 (KHTML, like Gecko) Chrome/92.0.4515.159 Safari/537.36",WebKit,Chrome,92.0.4515.159,Windows,10.0,5f461dd6c139dd6b46c7596cbd57cd79
227,1,"""","""","""","""","""",sampler,197,773359,0.0-6.0-191.0,"""","""","""","""","""","""","""","""","""","""","""","""","2021-08-17 18:04:12",197.185.101.89,"Mozilla/5.0 (Windows NT 10.0; Win64; x64) AppleWebKit/537.36 (KHTML, like Gecko) Chrome/92.0.4515.159 Safari/537.36",WebKit,Chrome,92.0.4515.159,Windows,10.0,5f461dd6c139dd6b46c7596cbd57cd79
227,1,"""","""","""","""","""",sampler,198,773360,0.0-6.0-192.0,"""","""","""","""","""","""","""","""","""","""","""","""","2021-08-17 18:04:12",197.185.101.89,"Mozilla/5.0 (Windows NT 10.0; Win64; x64) AppleWebKit/537.36 (KHTML, like Gecko) Chrome/92.0.4515.159 Safari/537.36",WebKit,Chrome,92.0.4515.159,Windows,10.0,5f461dd6c139dd6b46c7596cbd57cd79
227,1,"""","""","""","""","""",sampler,199,773361,0.0-6.0-193.0,"""","""","""","""","""","""","""","""","""","""","""","""","2021-08-17 18:04:12",197.185.101.89,"Mozilla/5.0 (Windows NT 10.0; Win64; x64) AppleWebKit/537.36 (KHTML, like Gecko) Chrome/92.0.4515.159 Safari/537.36",WebKit,Chrome,92.0.4515.159,Windows,10.0,5f461dd6c139dd6b46c7596cbd57cd79
227,1,"""","""","""","""","""",sampler,200,773361,0.0-6.0-194.0,"""","""","""","""","""","""","""","""","""","""","""","""","2021-08-17 18:04:12",197.185.101.89,"Mozilla/5.0 (Windows NT 10.0; Win64; x64) AppleWebKit/537.36 (KHTML, like Gecko) Chrome/92.0.4515.159 Safari/537.36",WebKit,Chrome,92.0.4515.159,Windows,10.0,5f461dd6c139dd6b46c7596cbd57cd79
227,1,"""","""","""","""","""",sampler,201,773362,0.0-6.0-195.0,"""","""","""","""","""","""","""","""","""","""","""","""","2021-08-17 18:04:12",197.185.101.89,"Mozilla/5.0 (Windows NT 10.0; Win64; x64) AppleWebKit/537.36 (KHTML, like Gecko) Chrome/92.0.4515.159 Safari/537.36",WebKit,Chrome,92.0.4515.159,Windows,10.0,5f461dd6c139dd6b46c7596cbd57cd79
227,1,"""","""","""","""","""",sampler,202,773363,0.0-6.0-196.0,"""","""","""","""","""","""","""","""","""","""","""","""","2021-08-17 18:04:12",197.185.101.89,"Mozilla/5.0 (Windows NT 10.0; Win64; x64) AppleWebKit/537.36 (KHTML, like Gecko) Chrome/92.0.4515.159 Safari/537.36",WebKit,Chrome,92.0.4515.159,Windows,10.0,5f461dd6c139dd6b46c7596cbd57cd79
227,1,"""","""","""","""","""",sampler,203,773363,0.0-6.0-197.0,"""","""","""","""","""","""","""","""","""","""","""","""","2021-08-17 18:04:12",197.185.101.89,"Mozilla/5.0 (Windows NT 10.0; Win64; x64) AppleWebKit/537.36 (KHTML, like Gecko) Chrome/92.0.4515.159 Safari/537.36",WebKit,Chrome,92.0.4515.159,Windows,10.0,5f461dd6c139dd6b46c7596cbd57cd79
227,1,"""","""","""","""","""",sampler,204,773364,0.0-6.0-198.0,"""","""","""","""","""","""","""","""","""","""","""","""","2021-08-17 18:04:12",197.185.101.89,"Mozilla/5.0 (Windows NT 10.0; Win64; x64) AppleWebKit/537.36 (KHTML, like Gecko) Chrome/92.0.4515.159 Safari/537.36",WebKit,Chrome,92.0.4515.159,Windows,10.0,5f461dd6c139dd6b46c7596cbd57cd79
227,1,"""","""","""","""","""",sampler,205,773364,0.0-6.0-199.0,"""","""","""","""","""","""","""","""","""","""","""","""","2021-08-17 18:04:12",197.185.101.89,"Mozilla/5.0 (Windows NT 10.0; Win64; x64) AppleWebKit/537.36 (KHTML, like Gecko) Chrome/92.0.4515.159 Safari/537.36",WebKit,Chrome,92.0.4515.159,Windows,10.0,5f461dd6c139dd6b46c7596cbd57cd79
227,1,"""","""","""","""","""",sampler,206,773365,0.0-6.0-200.0,"""","""","""","""","""","""","""","""","""","""","""","""","2021-08-17 18:04:12",197.185.101.89,"Mozilla/5.0 (Windows NT 10.0; Win64; x64) AppleWebKit/537.36 (KHTML, like Gecko) Chrome/92.0.4515.159 Safari/537.36",WebKit,Chrome,92.0.4515.159,Windows,10.0,5f461dd6c139dd6b46c7596cbd57cd79
227,1,"""","""","""","""","""",sampler,207,773366,0.0-6.0-201.0,"""","""","""","""","""","""","""","""","""","""","""","""","2021-08-17 18:04:12",197.185.101.89,"Mozilla/5.0 (Windows NT 10.0; Win64; x64) AppleWebKit/537.36 (KHTML, like Gecko) Chrome/92.0.4515.159 Safari/537.36",WebKit,Chrome,92.0.4515.159,Windows,10.0,5f461dd6c139dd6b46c7596cbd57cd79
227,1,"""","""","""","""","""",sampler,208,773367,0.0-6.0-202.0,"""","""","""","""","""","""","""","""","""","""","""","""","2021-08-17 18:04:12",197.185.101.89,"Mozilla/5.0 (Windows NT 10.0; Win64; x64) AppleWebKit/537.36 (KHTML, like Gecko) Chrome/92.0.4515.159 Safari/537.36",WebKit,Chrome,92.0.4515.159,Windows,10.0,5f461dd6c139dd6b46c7596cbd57cd79
227,1,"""","""","""","""","""",sampler,209,773368,0.0-6.0-203.0,"""","""","""","""","""","""","""","""","""","""","""","""","2021-08-17 18:04:12",197.185.101.89,"Mozilla/5.0 (Windows NT 10.0; Win64; x64) AppleWebKit/537.36 (KHTML, like Gecko) Chrome/92.0.4515.159 Safari/537.36",WebKit,Chrome,92.0.4515.159,Windows,10.0,5f461dd6c139dd6b46c7596cbd57cd79
227,1,"""","""","""","""","""",sampler,210,773368,0.0-6.0-204.0,"""","""","""","""","""","""","""","""","""","""","""","""","2021-08-17 18:04:12",197.185.101.89,"Mozilla/5.0 (Windows NT 10.0; Win64; x64) AppleWebKit/537.36 (KHTML, like Gecko) Chrome/92.0.4515.159 Safari/537.36",WebKit,Chrome,92.0.4515.159,Windows,10.0,5f461dd6c139dd6b46c7596cbd57cd79
227,1,"""","""","""","""","""",sampler,211,773369,0.0-6.0-205.0,"""","""","""","""","""","""","""","""","""","""","""","""","2021-08-17 18:04:12",197.185.101.89,"Mozilla/5.0 (Windows NT 10.0; Win64; x64) AppleWebKit/537.36 (KHTML, like Gecko) Chrome/92.0.4515.159 Safari/537.36",WebKit,Chrome,92.0.4515.159,Windows,10.0,5f461dd6c139dd6b46c7596cbd57cd79
227,1,"""","""","""","""","""",sampler,212,773369,0.0-6.0-206.0,"""","""","""","""","""","""","""","""","""","""","""","""","2021-08-17 18:04:12",197.185.101.89,"Mozilla/5.0 (Windows NT 10.0; Win64; x64) AppleWebKit/537.36 (KHTML, like Gecko) Chrome/92.0.4515.159 Safari/537.36",WebKit,Chrome,92.0.4515.159,Windows,10.0,5f461dd6c139dd6b46c7596cbd57cd79
227,1,"""","""","""","""","""",sampler,213,773370,0.0-6.0-207.0,"""","""","""","""","""","""","""","""","""","""","""","""","2021-08-17 18:04:12",197.185.101.89,"Mozilla/5.0 (Windows NT 10.0; Win64; x64) AppleWebKit/537.36 (KHTML, like Gecko) Chrome/92.0.4515.159 Safari/537.36",WebKit,Chrome,92.0.4515.159,Windows,10.0,5f461dd6c139dd6b46c7596cbd57cd79
227,1,"""","""","""","""","""",sampler,214,773371,0.0-6.0-208.0,"""","""","""","""","""","""","""","""","""","""","""","""","2021-08-17 18:04:12",197.185.101.89,"Mozilla/5.0 (Windows NT 10.0; Win64; x64) AppleWebKit/537.36 (KHTML, like Gecko) Chrome/92.0.4515.159 Safari/537.36",WebKit,Chrome,92.0.4515.159,Windows,10.0,5f461dd6c139dd6b46c7596cbd57cd79
227,1,"""","""","""","""","""",sampler,215,773371,0.0-6.0-209.0,"""","""","""","""","""","""","""","""","""","""","""","""","2021-08-17 18:04:12",197.185.101.89,"Mozilla/5.0 (Windows NT 10.0; Win64; x64) AppleWebKit/537.36 (KHTML, like Gecko) Chrome/92.0.4515.159 Safari/537.36",WebKit,Chrome,92.0.4515.159,Windows,10.0,5f461dd6c139dd6b46c7596cbd57cd79
227,1,"""","""","""","""","""",sampler,216,773372,0.0-6.0-210.0,"""","""","""","""","""","""","""","""","""","""","""","""","2021-08-17 18:04:12",197.185.101.89,"Mozilla/5.0 (Windows NT 10.0; Win64; x64) AppleWebKit/537.36 (KHTML, like Gecko) Chrome/92.0.4515.159 Safari/537.36",WebKit,Chrome,92.0.4515.159,Windows,10.0,5f461dd6c139dd6b46c7596cbd57cd79
227,1,"""","""","""","""","""",sampler,217,773372,0.0-6.0-211.0,"""","""","""","""","""","""","""","""","""","""","""","""","2021-08-17 18:04:12",197.185.101.89,"Mozilla/5.0 (Windows NT 10.0; Win64; x64) AppleWebKit/537.36 (KHTML, like Gecko) Chrome/92.0.4515.159 Safari/537.36",WebKit,Chrome,92.0.4515.159,Windows,10.0,5f461dd6c139dd6b46c7596cbd57cd79
227,1,"""","""","""","""","""",sampler,218,773373,0.0-6.0-212.0,"""","""","""","""","""","""","""","""","""","""","""","""","2021-08-17 18:04:12",197.185.101.89,"Mozilla/5.0 (Windows NT 10.0; Win64; x64) AppleWebKit/537.36 (KHTML, like Gecko) Chrome/92.0.4515.159 Safari/537.36",WebKit,Chrome,92.0.4515.159,Windows,10.0,5f461dd6c139dd6b46c7596cbd57cd79
227,1,"""","""","""","""","""",sampler,219,773373,0.0-6.0-213.0,"""","""","""","""","""","""","""","""","""","""","""","""","2021-08-17 18:04:12",197.185.101.89,"Mozilla/5.0 (Windows NT 10.0; Win64; x64) AppleWebKit/537.36 (KHTML, like Gecko) Chrome/92.0.4515.159 Safari/537.36",WebKit,Chrome,92.0.4515.159,Windows,10.0,5f461dd6c139dd6b46c7596cbd57cd79
227,1,"""","""","""","""","""",sampler,220,773374,0.0-6.0-214.0,"""","""","""","""","""","""","""","""","""","""","""","""","2021-08-17 18:04:12",197.185.101.89,"Mozilla/5.0 (Windows NT 10.0; Win64; x64) AppleWebKit/537.36 (KHTML, like Gecko) Chrome/92.0.4515.159 Safari/537.36",WebKit,Chrome,92.0.4515.159,Windows,10.0,5f461dd6c139dd6b46c7596cbd57cd79
227,1,"""","""","""","""","""",sampler,221,773376,0.0-6.0-215.0,"""","""","""","""","""","""","""","""","""","""","""","""","2021-08-17 18:04:12",197.185.101.89,"Mozilla/5.0 (Windows NT 10.0; Win64; x64) AppleWebKit/537.36 (KHTML, like Gecko) Chrome/92.0.4515.159 Safari/537.36",WebKit,Chrome,92.0.4515.159,Windows,10.0,5f461dd6c139dd6b46c7596cbd57cd79
227,1,"""","""","""","""","""",sampler,222,773380,0.0-6.0-216.0,"""","""","""","""","""","""","""","""","""","""","""","""","2021-08-17 18:04:12",197.185.101.89,"Mozilla/5.0 (Windows NT 10.0; Win64; x64) AppleWebKit/537.36 (KHTML, like Gecko) Chrome/92.0.4515.159 Safari/537.36",WebKit,Chrome,92.0.4515.159,Windows,10.0,5f461dd6c139dd6b46c7596cbd57cd79
227,1,"""","""","""","""","""",sampler,223,773381,0.0-6.0-217.0,"""","""","""","""","""","""","""","""","""","""","""","""","2021-08-17 18:04:12",197.185.101.89,"Mozilla/5.0 (Windows NT 10.0; Win64; x64) AppleWebKit/537.36 (KHTML, like Gecko) Chrome/92.0.4515.159 Safari/537.36",WebKit,Chrome,92.0.4515.159,Windows,10.0,5f461dd6c139dd6b46c7596cbd57cd79
227,1,"""","""","""","""","""",sampler,224,773384,0.0-6.0-218.0,"""","""","""","""","""","""","""","""","""","""","""","""","2021-08-17 18:04:12",197.185.101.89,"Mozilla/5.0 (Windows NT 10.0; Win64; x64) AppleWebKit/537.36 (KHTML, like Gecko) Chrome/92.0.4515.159 Safari/537.36",WebKit,Chrome,92.0.4515.159,Windows,10.0,5f461dd6c139dd6b46c7596cbd57cd79
227,1,"""","""","""","""","""",sampler,225,773386,0.0-6.0-219.0,"""","""","""","""","""","""","""","""","""","""","""","""","2021-08-17 18:04:12",197.185.101.89,"Mozilla/5.0 (Windows NT 10.0; Win64; x64) AppleWebKit/537.36 (KHTML, like Gecko) Chrome/92.0.4515.159 Safari/537.36",WebKit,Chrome,92.0.4515.159,Windows,10.0,5f461dd6c139dd6b46c7596cbd57cd79
227,1,"""","""","""","""","""",sampler,226,773388,0.0-6.0-220.0,"""","""","""","""","""","""","""","""","""","""","""","""","2021-08-17 18:04:12",197.185.101.89,"Mozilla/5.0 (Windows NT 10.0; Win64; x64) AppleWebKit/537.36 (KHTML, like Gecko) Chrome/92.0.4515.159 Safari/537.36",WebKit,Chrome,92.0.4515.159,Windows,10.0,5f461dd6c139dd6b46c7596cbd57cd79
227,1,"""","""","""","""","""",sampler,227,773389,0.0-6.0-221.0,"""","""","""","""","""","""","""","""","""","""","""","""","2021-08-17 18:04:12",197.185.101.89,"Mozilla/5.0 (Windows NT 10.0; Win64; x64) AppleWebKit/537.36 (KHTML, like Gecko) Chrome/92.0.4515.159 Safari/537.36",WebKit,Chrome,92.0.4515.159,Windows,10.0,5f461dd6c139dd6b46c7596cbd57cd79
227,1,"""","""","""","""","""",sampler,228,773390,0.0-6.0-222.0,"""","""","""","""","""","""","""","""","""","""","""","""","2021-08-17 18:04:12",197.185.101.89,"Mozilla/5.0 (Windows NT 10.0; Win64; x64) AppleWebKit/537.36 (KHTML, like Gecko) Chrome/92.0.4515.159 Safari/537.36",WebKit,Chrome,92.0.4515.159,Windows,10.0,5f461dd6c139dd6b46c7596cbd57cd79
227,1,"""","""","""","""","""",sampler,229,773391,0.0-6.0-223.0,"""","""","""","""","""","""","""","""","""","""","""","""","2021-08-17 18:04:12",197.185.101.89,"Mozilla/5.0 (Windows NT 10.0; Win64; x64) AppleWebKit/537.36 (KHTML, like Gecko) Chrome/92.0.4515.159 Safari/537.36",WebKit,Chrome,92.0.4515.159,Windows,10.0,5f461dd6c139dd6b46c7596cbd57cd79
227,1,"""","""","""","""","""",sampler,230,773392,0.0-6.0-224.0,"""","""","""","""","""","""","""","""","""","""","""","""","2021-08-17 18:04:12",197.185.101.89,"Mozilla/5.0 (Windows NT 10.0; Win64; x64) AppleWebKit/537.36 (KHTML, like Gecko) Chrome/92.0.4515.159 Safari/537.36",WebKit,Chrome,92.0.4515.159,Windows,10.0,5f461dd6c139dd6b46c7596cbd57cd79
227,1,"""","""","""","""","""",sampler,231,773393,0.0-6.0-225.0,"""","""","""","""","""","""","""","""","""","""","""","""","2021-08-17 18:04:12",197.185.101.89,"Mozilla/5.0 (Windows NT 10.0; Win64; x64) AppleWebKit/537.36 (KHTML, like Gecko) Chrome/92.0.4515.159 Safari/537.36",WebKit,Chrome,92.0.4515.159,Windows,10.0,5f461dd6c139dd6b46c7596cbd57cd79
227,1,"""","""","""","""","""",sampler,232,773394,0.0-6.0-226.0,"""","""","""","""","""","""","""","""","""","""","""","""","2021-08-17 18:04:12",197.185.101.89,"Mozilla/5.0 (Windows NT 10.0; Win64; x64) AppleWebKit/537.36 (KHTML, like Gecko) Chrome/92.0.4515.159 Safari/537.36",WebKit,Chrome,92.0.4515.159,Windows,10.0,5f461dd6c139dd6b46c7596cbd57cd79
227,1,"""","""","""","""","""",sampler,233,773396,0.0-6.0-227.0,"""","""","""","""","""","""","""","""","""","""","""","""","2021-08-17 18:04:12",197.185.101.89,"Mozilla/5.0 (Windows NT 10.0; Win64; x64) AppleWebKit/537.36 (KHTML, like Gecko) Chrome/92.0.4515.159 Safari/537.36",WebKit,Chrome,92.0.4515.159,Windows,10.0,5f461dd6c139dd6b46c7596cbd57cd79
227,1,"""","""","""","""","""",sampler,234,773399,0.0-6.0-228.0,"""","""","""","""","""","""","""","""","""","""","""","""","2021-08-17 18:04:12",197.185.101.89,"Mozilla/5.0 (Windows NT 10.0; Win64; x64) AppleWebKit/537.36 (KHTML, like Gecko) Chrome/92.0.4515.159 Safari/537.36",WebKit,Chrome,92.0.4515.159,Windows,10.0,5f461dd6c139dd6b46c7596cbd57cd79
227,1,"""","""","""","""","""",sampler,235,773400,0.0-6.0-229.0,"""","""","""","""","""","""","""","""","""","""","""","""","2021-08-17 18:04:12",197.185.101.89,"Mozilla/5.0 (Windows NT 10.0; Win64; x64) AppleWebKit/537.36 (KHTML, like Gecko) Chrome/92.0.4515.159 Safari/537.36",WebKit,Chrome,92.0.4515.159,Windows,10.0,5f461dd6c139dd6b46c7596cbd57cd79
227,1,"""","""","""","""","""",sampler,236,773402,0.0-6.0-230.0,"""","""","""","""","""","""","""","""","""","""","""","""","2021-08-17 18:04:12",197.185.101.89,"Mozilla/5.0 (Windows NT 10.0; Win64; x64) AppleWebKit/537.36 (KHTML, like Gecko) Chrome/92.0.4515.159 Safari/537.36",WebKit,Chrome,92.0.4515.159,Windows,10.0,5f461dd6c139dd6b46c7596cbd57cd79
227,1,"""","""","""","""","""",sampler,237,773403,0.0-6.0-231.0,"""","""","""","""","""","""","""","""","""","""","""","""","2021-08-17 18:04:12",197.185.101.89,"Mozilla/5.0 (Windows NT 10.0; Win64; x64) AppleWebKit/537.36 (KHTML, like Gecko) Chrome/92.0.4515.159 Safari/537.36",WebKit,Chrome,92.0.4515.159,Windows,10.0,5f461dd6c139dd6b46c7596cbd57cd79
227,1,"""","""","""","""","""",sampler,238,773404,0.0-6.0-232.0,"""","""","""","""","""","""","""","""","""","""","""","""","2021-08-17 18:04:12",197.185.101.89,"Mozilla/5.0 (Windows NT 10.0; Win64; x64) AppleWebKit/537.36 (KHTML, like Gecko) Chrome/92.0.4515.159 Safari/537.36",WebKit,Chrome,92.0.4515.159,Windows,10.0,5f461dd6c139dd6b46c7596cbd57cd79
227,1,"""","""","""","""","""",sampler,239,773405,0.0-6.0-233.0,"""","""","""","""","""","""","""","""","""","""","""","""","2021-08-17 18:04:12",197.185.101.89,"Mozilla/5.0 (Windows NT 10.0; Win64; x64) AppleWebKit/537.36 (KHTML, like Gecko) Chrome/92.0.4515.159 Safari/537.36",WebKit,Chrome,92.0.4515.159,Windows,10.0,5f461dd6c139dd6b46c7596cbd57cd79
227,1,"""","""","""","""","""",sampler,240,773406,0.0-6.0-234.0,"""","""","""","""","""","""","""","""","""","""","""","""","2021-08-17 18:04:12",197.185.101.89,"Mozilla/5.0 (Windows NT 10.0; Win64; x64) AppleWebKit/537.36 (KHTML, like Gecko) Chrome/92.0.4515.159 Safari/537.36",WebKit,Chrome,92.0.4515.159,Windows,10.0,5f461dd6c139dd6b46c7596cbd57cd79
227,1,"""","""","""","""","""",sampler,241,773407,0.0-6.0-235.0,"""","""","""","""","""","""","""","""","""","""","""","""","2021-08-17 18:04:12",197.185.101.89,"Mozilla/5.0 (Windows NT 10.0; Win64; x64) AppleWebKit/537.36 (KHTML, like Gecko) Chrome/92.0.4515.159 Safari/537.36",WebKit,Chrome,92.0.4515.159,Windows,10.0,5f461dd6c139dd6b46c7596cbd57cd79
227,1,"""","""","""","""","""",sampler,242,773408,0.0-6.0-236.0,"""","""","""","""","""","""","""","""","""","""","""","""","2021-08-17 18:04:12",197.185.101.89,"Mozilla/5.0 (Windows NT 10.0; Win64; x64) AppleWebKit/537.36 (KHTML, like Gecko) Chrome/92.0.4515.159 Safari/537.36",WebKit,Chrome,92.0.4515.159,Windows,10.0,5f461dd6c139dd6b46c7596cbd57cd79
227,1,"""","""","""","""","""",sampler,243,773410,0.0-6.0-237.0,"""","""","""","""","""","""","""","""","""","""","""","""","2021-08-17 18:04:12",197.185.101.89,"Mozilla/5.0 (Windows NT 10.0; Win64; x64) AppleWebKit/537.36 (KHTML, like Gecko) Chrome/92.0.4515.159 Safari/537.36",WebKit,Chrome,92.0.4515.159,Windows,10.0,5f461dd6c139dd6b46c7596cbd57cd79
227,1,"""","""","""","""","""",sampler,244,773410,0.0-6.0-238.0,"""","""","""","""","""","""","""","""","""","""","""","""","2021-08-17 18:04:12",197.185.101.89,"Mozilla/5.0 (Windows NT 10.0; Win64; x64) AppleWebKit/537.36 (KHTML, like Gecko) Chrome/92.0.4515.159 Safari/537.36",WebKit,Chrome,92.0.4515.159,Windows,10.0,5f461dd6c139dd6b46c7596cbd57cd79
227,1,"""","""","""","""","""",sampler,245,773411,0.0-6.0-239.0,"""","""","""","""","""","""","""","""","""","""","""","""","2021-08-17 18:04:12",197.185.101.89,"Mozilla/5.0 (Windows NT 10.0; Win64; x64) AppleWebKit/537.36 (KHTML, like Gecko) Chrome/92.0.4515.159 Safari/537.36",WebKit,Chrome,92.0.4515.159,Windows,10.0,5f461dd6c139dd6b46c7596cbd57cd79
227,1,"""","""","""","""","""",sampler,246,773412,0.0-6.0-240.0,"""","""","""","""","""","""","""","""","""","""","""","""","2021-08-17 18:04:12",197.185.101.89,"Mozilla/5.0 (Windows NT 10.0; Win64; x64) AppleWebKit/537.36 (KHTML, like Gecko) Chrome/92.0.4515.159 Safari/537.36",WebKit,Chrome,92.0.4515.159,Windows,10.0,5f461dd6c139dd6b46c7596cbd57cd79
227,1,"""","""","""","""","""",sampler,247,773412,0.0-6.0-241.0,"""","""","""","""","""","""","""","""","""","""","""","""","2021-08-17 18:04:12",197.185.101.89,"Mozilla/5.0 (Windows NT 10.0; Win64; x64) AppleWebKit/537.36 (KHTML, like Gecko) Chrome/92.0.4515.159 Safari/537.36",WebKit,Chrome,92.0.4515.159,Windows,10.0,5f461dd6c139dd6b46c7596cbd57cd79
227,1,"""","""","""","""","""",sampler,248,773413,0.0-6.0-242.0,"""","""","""","""","""","""","""","""","""","""","""","""","2021-08-17 18:04:12",197.185.101.89,"Mozilla/5.0 (Windows NT 10.0; Win64; x64) AppleWebKit/537.36 (KHTML, like Gecko) Chrome/92.0.4515.159 Safari/537.36",WebKit,Chrome,92.0.4515.159,Windows,10.0,5f461dd6c139dd6b46c7596cbd57cd79
227,1,"""","""","""","""","""",sampler,249,773414,0.0-6.0-243.0,"""","""","""","""","""","""","""","""","""","""","""","""","2021-08-17 18:04:12",197.185.101.89,"Mozilla/5.0 (Windows NT 10.0; Win64; x64) AppleWebKit/537.36 (KHTML, like Gecko) Chrome/92.0.4515.159 Safari/537.36",WebKit,Chrome,92.0.4515.159,Windows,10.0,5f461dd6c139dd6b46c7596cbd57cd79
227,1,"""","""","""","""","""",sampler,250,773414,0.0-6.0-244.0,"""","""","""","""","""","""","""","""","""","""","""","""","2021-08-17 18:04:12",197.185.101.89,"Mozilla/5.0 (Windows NT 10.0; Win64; x64) AppleWebKit/537.36 (KHTML, like Gecko) Chrome/92.0.4515.159 Safari/537.36",WebKit,Chrome,92.0.4515.159,Windows,10.0,5f461dd6c139dd6b46c7596cbd57cd79
227,1,"""","""","""","""","""",sampler,251,773415,0.0-6.0-245.0,"""","""","""","""","""","""","""","""","""","""","""","""","2021-08-17 18:04:12",197.185.101.89,"Mozilla/5.0 (Windows NT 10.0; Win64; x64) AppleWebKit/537.36 (KHTML, like Gecko) Chrome/92.0.4515.159 Safari/537.36",WebKit,Chrome,92.0.4515.159,Windows,10.0,5f461dd6c139dd6b46c7596cbd57cd79
227,1,"""","""","""","""","""",sampler,252,773416,0.0-6.0-246.0,"""","""","""","""","""","""","""","""","""","""","""","""","2021-08-17 18:04:12",197.185.101.89,"Mozilla/5.0 (Windows NT 10.0; Win64; x64) AppleWebKit/537.36 (KHTML, like Gecko) Chrome/92.0.4515.159 Safari/537.36",WebKit,Chrome,92.0.4515.159,Windows,10.0,5f461dd6c139dd6b46c7596cbd57cd79
227,1,"""","""","""","""","""",sampler,253,773418,0.0-6.0-247.0,"""","""","""","""","""","""","""","""","""","""","""","""","2021-08-17 18:04:12",197.185.101.89,"Mozilla/5.0 (Windows NT 10.0; Win64; x64) AppleWebKit/537.36 (KHTML, like Gecko) Chrome/92.0.4515.159 Safari/537.36",WebKit,Chrome,92.0.4515.159,Windows,10.0,5f461dd6c139dd6b46c7596cbd57cd79
227,1,"""","""","""","""","""",sampler,254,773419,0.0-6.0-248.0,"""","""","""","""","""","""","""","""","""","""","""","""","2021-08-17 18:04:12",197.185.101.89,"Mozilla/5.0 (Windows NT 10.0; Win64; x64) AppleWebKit/537.36 (KHTML, like Gecko) Chrome/92.0.4515.159 Safari/537.36",WebKit,Chrome,92.0.4515.159,Windows,10.0,5f461dd6c139dd6b46c7596cbd57cd79
227,1,"""","""","""","""","""",sampler,255,773420,0.0-6.0-249.0,"""","""","""","""","""","""","""","""","""","""","""","""","2021-08-17 18:04:12",197.185.101.89,"Mozilla/5.0 (Windows NT 10.0; Win64; x64) AppleWebKit/537.36 (KHTML, like Gecko) Chrome/92.0.4515.159 Safari/537.36",WebKit,Chrome,92.0.4515.159,Windows,10.0,5f461dd6c139dd6b46c7596cbd57cd79
227,1,"""","""","""","""","""",sampler,256,773421,0.0-6.0-250.0,"""","""","""","""","""","""","""","""","""","""","""","""","2021-08-17 18:04:12",197.185.101.89,"Mozilla/5.0 (Windows NT 10.0; Win64; x64) AppleWebKit/537.36 (KHTML, like Gecko) Chrome/92.0.4515.159 Safari/537.36",WebKit,Chrome,92.0.4515.159,Windows,10.0,5f461dd6c139dd6b46c7596cbd57cd79
227,1,"""","""","""","""","""",sampler,257,773422,0.0-6.0-251.0,"""","""","""","""","""","""","""","""","""","""","""","""","2021-08-17 18:04:12",197.185.101.89,"Mozilla/5.0 (Windows NT 10.0; Win64; x64) AppleWebKit/537.36 (KHTML, like Gecko) Chrome/92.0.4515.159 Safari/537.36",WebKit,Chrome,92.0.4515.159,Windows,10.0,5f461dd6c139dd6b46c7596cbd57cd79
227,1,"""","""","""","""","""",sampler,258,773424,0.0-6.0-252.0,"""","""","""","""","""","""","""","""","""","""","""","""","2021-08-17 18:04:12",197.185.101.89,"Mozilla/5.0 (Windows NT 10.0; Win64; x64) AppleWebKit/537.36 (KHTML, like Gecko) Chrome/92.0.4515.159 Safari/537.36",WebKit,Chrome,92.0.4515.159,Windows,10.0,5f461dd6c139dd6b46c7596cbd57cd79
227,1,"""","""","""","""","""",sampler,259,773425,0.0-6.0-253.0,"""","""","""","""","""","""","""","""","""","""","""","""","2021-08-17 18:04:12",197.185.101.89,"Mozilla/5.0 (Windows NT 10.0; Win64; x64) AppleWebKit/537.36 (KHTML, like Gecko) Chrome/92.0.4515.159 Safari/537.36",WebKit,Chrome,92.0.4515.159,Windows,10.0,5f461dd6c139dd6b46c7596cbd57cd79
227,1,"""","""","""","""","""",sampler,260,773427,0.0-6.0-254.0,"""","""","""","""","""","""","""","""","""","""","""","""","2021-08-17 18:04:12",197.185.101.89,"Mozilla/5.0 (Windows NT 10.0; Win64; x64) AppleWebKit/537.36 (KHTML, like Gecko) Chrome/92.0.4515.159 Safari/537.36",WebKit,Chrome,92.0.4515.159,Windows,10.0,5f461dd6c139dd6b46c7596cbd57cd79
227,1,"""","""","""","""","""",sampler,261,773428,0.0-6.0-255.0,"""","""","""","""","""","""","""","""","""","""","""","""","2021-08-17 18:04:12",197.185.101.89,"Mozilla/5.0 (Windows NT 10.0; Win64; x64) AppleWebKit/537.36 (KHTML, like Gecko) Chrome/92.0.4515.159 Safari/537.36",WebKit,Chrome,92.0.4515.159,Windows,10.0,5f461dd6c139dd6b46c7596cbd57cd79
227,1,"""","""","""","""","""",sampler,262,773429,0.0-6.0-256.0,"""","""","""","""","""","""","""","""","""","""","""","""","2021-08-17 18:04:12",197.185.101.89,"Mozilla/5.0 (Windows NT 10.0; Win64; x64) AppleWebKit/537.36 (KHTML, like Gecko) Chrome/92.0.4515.159 Safari/537.36",WebKit,Chrome,92.0.4515.159,Windows,10.0,5f461dd6c139dd6b46c7596cbd57cd79
227,1,"""","""","""","""","""",sampler,263,773430,0.0-6.0-257.0,"""","""","""","""","""","""","""","""","""","""","""","""","2021-08-17 18:04:12",197.185.101.89,"Mozilla/5.0 (Windows NT 10.0; Win64; x64) AppleWebKit/537.36 (KHTML, like Gecko) Chrome/92.0.4515.159 Safari/537.36",WebKit,Chrome,92.0.4515.159,Windows,10.0,5f461dd6c139dd6b46c7596cbd57cd79
227,1,"""","""","""","""","""",sampler,264,773431,0.0-6.0-258.0,"""","""","""","""","""","""","""","""","""","""","""","""","2021-08-17 18:04:12",197.185.101.89,"Mozilla/5.0 (Windows NT 10.0; Win64; x64) AppleWebKit/537.36 (KHTML, like Gecko) Chrome/92.0.4515.159 Safari/537.36",WebKit,Chrome,92.0.4515.159,Windows,10.0,5f461dd6c139dd6b46c7596cbd57cd79
227,1,"""","""","""","""","""",sampler,265,773433,0.0-6.0-259.0,"""","""","""","""","""","""","""","""","""","""","""","""","2021-08-17 18:04:12",197.185.101.89,"Mozilla/5.0 (Windows NT 10.0; Win64; x64) AppleWebKit/537.36 (KHTML, like Gecko) Chrome/92.0.4515.159 Safari/537.36",WebKit,Chrome,92.0.4515.159,Windows,10.0,5f461dd6c139dd6b46c7596cbd57cd79
227,1,"""","""","""","""","""",sampler,266,773434,0.0-6.0-260.0,"""","""","""","""","""","""","""","""","""","""","""","""","2021-08-17 18:04:12",197.185.101.89,"Mozilla/5.0 (Windows NT 10.0; Win64; x64) AppleWebKit/537.36 (KHTML, like Gecko) Chrome/92.0.4515.159 Safari/537.36",WebKit,Chrome,92.0.4515.159,Windows,10.0,5f461dd6c139dd6b46c7596cbd57cd79
227,1,"""","""","""","""","""",sampler,267,773435,0.0-6.0-261.0,"""","""","""","""","""","""","""","""","""","""","""","""","2021-08-17 18:04:12",197.185.101.89,"Mozilla/5.0 (Windows NT 10.0; Win64; x64) AppleWebKit/537.36 (KHTML, like Gecko) Chrome/92.0.4515.159 Safari/537.36",WebKit,Chrome,92.0.4515.159,Windows,10.0,5f461dd6c139dd6b46c7596cbd57cd79
227,1,"""","""","""","""","""",sampler,268,773435,0.0-6.0-262.0,"""","""","""","""","""","""","""","""","""","""","""","""","2021-08-17 18:04:12",197.185.101.89,"Mozilla/5.0 (Windows NT 10.0; Win64; x64) AppleWebKit/537.36 (KHTML, like Gecko) Chrome/92.0.4515.159 Safari/537.36",WebKit,Chrome,92.0.4515.159,Windows,10.0,5f461dd6c139dd6b46c7596cbd57cd79
227,1,"""","""","""","""","""",sampler,269,773436,0.0-6.0-263.0,"""","""","""","""","""","""","""","""","""","""","""","""","2021-08-17 18:04:12",197.185.101.89,"Mozilla/5.0 (Windows NT 10.0; Win64; x64) AppleWebKit/537.36 (KHTML, like Gecko) Chrome/92.0.4515.159 Safari/537.36",WebKit,Chrome,92.0.4515.159,Windows,10.0,5f461dd6c139dd6b46c7596cbd57cd79
227,1,"""","""","""","""","""",sampler,270,773437,0.0-6.0-264.0,"""","""","""","""","""","""","""","""","""","""","""","""","2021-08-17 18:04:12",197.185.101.89,"Mozilla/5.0 (Windows NT 10.0; Win64; x64) AppleWebKit/537.36 (KHTML, like Gecko) Chrome/92.0.4515.159 Safari/537.36",WebKit,Chrome,92.0.4515.159,Windows,10.0,5f461dd6c139dd6b46c7596cbd57cd79
227,1,"""","""","""","""","""",sampler,271,773437,0.0-6.0-265.0,"""","""","""","""","""","""","""","""","""","""","""","""","2021-08-17 18:04:12",197.185.101.89,"Mozilla/5.0 (Windows NT 10.0; Win64; x64) AppleWebKit/537.36 (KHTML, like Gecko) Chrome/92.0.4515.159 Safari/537.36",WebKit,Chrome,92.0.4515.159,Windows,10.0,5f461dd6c139dd6b46c7596cbd57cd79
227,1,"""","""","""","""","""",sampler,272,773438,0.0-6.0-266.0,"""","""","""","""","""","""","""","""","""","""","""","""","2021-08-17 18:04:12",197.185.101.89,"Mozilla/5.0 (Windows NT 10.0; Win64; x64) AppleWebKit/537.36 (KHTML, like Gecko) Chrome/92.0.4515.159 Safari/537.36",WebKit,Chrome,92.0.4515.159,Windows,10.0,5f461dd6c139dd6b46c7596cbd57cd79
227,1,"""","""","""","""","""",sampler,273,773438,0.0-6.0-267.0,"""","""","""","""","""","""","""","""","""","""","""","""","2021-08-17 18:04:12",197.185.101.89,"Mozilla/5.0 (Windows NT 10.0; Win64; x64) AppleWebKit/537.36 (KHTML, like Gecko) Chrome/92.0.4515.159 Safari/537.36",WebKit,Chrome,92.0.4515.159,Windows,10.0,5f461dd6c139dd6b46c7596cbd57cd79
227,1,"""","""","""","""","""",sampler,274,773439,0.0-6.0-268.0,"""","""","""","""","""","""","""","""","""","""","""","""","2021-08-17 18:04:12",197.185.101.89,"Mozilla/5.0 (Windows NT 10.0; Win64; x64) AppleWebKit/537.36 (KHTML, like Gecko) Chrome/92.0.4515.159 Safari/537.36",WebKit,Chrome,92.0.4515.159,Windows,10.0,5f461dd6c139dd6b46c7596cbd57cd79
227,1,"""","""","""","""","""",sampler,275,773440,0.0-6.0-269.0,"""","""","""","""","""","""","""","""","""","""","""","""","2021-08-17 18:04:12",197.185.101.89,"Mozilla/5.0 (Windows NT 10.0; Win64; x64) AppleWebKit/537.36 (KHTML, like Gecko) Chrome/92.0.4515.159 Safari/537.36",WebKit,Chrome,92.0.4515.159,Windows,10.0,5f461dd6c139dd6b46c7596cbd57cd79
227,1,"""","""","""","""","""",sampler,276,773440,0.0-6.0-270.0,"""","""","""","""","""","""","""","""","""","""","""","""","2021-08-17 18:04:12",197.185.101.89,"Mozilla/5.0 (Windows NT 10.0; Win64; x64) AppleWebKit/537.36 (KHTML, like Gecko) Chrome/92.0.4515.159 Safari/537.36",WebKit,Chrome,92.0.4515.159,Windows,10.0,5f461dd6c139dd6b46c7596cbd57cd79
227,1,"""","""","""","""","""",sampler,277,773441,0.0-6.0-271.0,"""","""","""","""","""","""","""","""","""","""","""","""","2021-08-17 18:04:12",197.185.101.89,"Mozilla/5.0 (Windows NT 10.0; Win64; x64) AppleWebKit/537.36 (KHTML, like Gecko) Chrome/92.0.4515.159 Safari/537.36",WebKit,Chrome,92.0.4515.159,Windows,10.0,5f461dd6c139dd6b46c7596cbd57cd79
227,1,"""","""","""","""","""",sampler,278,773442,0.0-6.0-272.0,"""","""","""","""","""","""","""","""","""","""","""","""","2021-08-17 18:04:12",197.185.101.89,"Mozilla/5.0 (Windows NT 10.0; Win64; x64) AppleWebKit/537.36 (KHTML, like Gecko) Chrome/92.0.4515.159 Safari/537.36",WebKit,Chrome,92.0.4515.159,Windows,10.0,5f461dd6c139dd6b46c7596cbd57cd79
227,1,"""","""","""","""","""",sampler,279,773442,0.0-6.0-273.0,"""","""","""","""","""","""","""","""","""","""","""","""","2021-08-17 18:04:12",197.185.101.89,"Mozilla/5.0 (Windows NT 10.0; Win64; x64) AppleWebKit/537.36 (KHTML, like Gecko) Chrome/92.0.4515.159 Safari/537.36",WebKit,Chrome,92.0.4515.159,Windows,10.0,5f461dd6c139dd6b46c7596cbd57cd79
