run_id,condition,success,timeout,failed_images,failed_audio,failed_video,trial_type,trial_index,time_elapsed,internal_node_id,rt,stimulus,key_press,responses,view_history,correct,image_click,points,sd,points2,total_earn,button_pressed,recorded_at,ip,user_agent,device,browser,browser_version,platform,platform_version,source_code_version
184,1,true,false,"""","""","""",preload,0,917,0.0-0.0,"""","""","""","""","""","""","""","""","""","""","""","""","2021-08-09 16:15:48",72.239.172.164,"Mozilla/5.0 (Macintosh; Intel Mac OS X 10_15_7) AppleWebKit/537.36 (KHTML, like Gecko) Chrome/92.0.4515.131 Safari/537.36",Macintosh,Chrome,92.0.4515.131,"OS X",10_15_7,5f461dd6c139dd6b46c7596cbd57cd79
184,1,"""","""","""","""","""",html-keyboard-response,1,2587,0.0-1.0,1667,"<font size=15>Welcome to our experiment!</font><br><br><br><i> Press <b>space bar</b> to begin.</i>",32,"""","""","""","""","""","""","""","""","""","2021-08-09 16:15:48",72.239.172.164,"Mozilla/5.0 (Macintosh; Intel Mac OS X 10_15_7) AppleWebKit/537.36 (KHTML, like Gecko) Chrome/92.0.4515.131 Safari/537.36",Macintosh,Chrome,92.0.4515.131,"OS X",10_15_7,5f461dd6c139dd6b46c7596cbd57cd79
184,1,"""","""","""","""","""",survey-multi-choice,2,10877,0.0-2.0,8284,"""","""","{""Q0"":""Yes"",""Q1"":""Yes"",""Q2"":""Yes"",""Q3"":""Yes""}","""","""","""","""","""","""","""","""","2021-08-09 16:15:48",72.239.172.164,"Mozilla/5.0 (Macintosh; Intel Mac OS X 10_15_7) AppleWebKit/537.36 (KHTML, like Gecko) Chrome/92.0.4515.131 Safari/537.36",Macintosh,Chrome,92.0.4515.131,"OS X",10_15_7,5f461dd6c139dd6b46c7596cbd57cd79
184,1,"""","""","""","""","""",survey-html-form,3,22097,0.0-3.0,11214.90000000596,"""","""","{""gender"":""female"",""age"":""20"",""hand"":""right"",""mail"":""6111513c9fb2ced78dcfe88d""}","""","""","""","""","""","""","""","""","2021-08-09 16:15:48",72.239.172.164,"Mozilla/5.0 (Macintosh; Intel Mac OS X 10_15_7) AppleWebKit/537.36 (KHTML, like Gecko) Chrome/92.0.4515.131 Safari/537.36",Macintosh,Chrome,92.0.4515.131,"OS X",10_15_7,5f461dd6c139dd6b46c7596cbd57cd79
184,1,true,"""","""","""","""",fullscreen,4,26202,0.0-4.0,"""","""","""","""","""","""","""","""","""","""","""","""","2021-08-09 16:15:48",72.239.172.164,"Mozilla/5.0 (Macintosh; Intel Mac OS X 10_15_7) AppleWebKit/537.36 (KHTML, like Gecko) Chrome/92.0.4515.131 Safari/537.36",Macintosh,Chrome,92.0.4515.131,"OS X",10_15_7,5f461dd6c139dd6b46c7596cbd57cd79
184,1,"""","""","""","""","""",multikey-instructions,5,310572,0.0-5.0,284365,"""","""","""","[{""page_index"":0,""viewing_time"":36610},{""page_index"":1,""viewing_time"":11209},{""page_index"":0,""viewing_time"":1193},{""page_index"":1,""viewing_time"":507},{""page_index"":2,""viewing_time"":710},{""page_index"":1,""viewing_time"":918},{""page_index"":2,""viewing_time"":7968},{""page_index"":3,""viewing_time"":10946},{""page_index"":4,""viewing_time"":9107},{""page_index"":5,""viewing_time"":8642},{""page_index"":6,""viewing_time"":3839},{""page_index"":7,""viewing_time"":3637},{""page_index"":8,""viewing_time"":6706},{""page_index"":9,""viewing_time"":124948},{""page_index"":8,""viewing_time"":9632},{""page_index"":7,""viewing_time"":682},{""page_index"":6,""viewing_time"":573},{""page_index"":7,""viewing_time"":235},{""page_index"":8,""viewing_time"":8726},{""page_index"":9,""viewing_time"":319},{""page_index"":10,""viewing_time"":2045},{""page_index"":9,""viewing_time"":2564},{""page_index"":10,""viewing_time"":19249},{""page_index"":11,""viewing_time"":13400}]","""","""","""","""","""","""","""","2021-08-09 16:15:48",72.239.172.164,"Mozilla/5.0 (Macintosh; Intel Mac OS X 10_15_7) AppleWebKit/537.36 (KHTML, like Gecko) Chrome/92.0.4515.131 Safari/537.36",Macintosh,Chrome,92.0.4515.131,"OS X",10_15_7,5f461dd6c139dd6b46c7596cbd57cd79
184,1,"""","""","""","""","""",sampler,6,318841,0.0-6.0-0.0,7864,img/Cobalt.png,"""","""","""",false,-1,3.8655314789695794,10,"""","""","""","2021-08-09 16:15:48",72.239.172.164,"Mozilla/5.0 (Macintosh; Intel Mac OS X 10_15_7) AppleWebKit/537.36 (KHTML, like Gecko) Chrome/92.0.4515.131 Safari/537.36",Macintosh,Chrome,92.0.4515.131,"OS X",10_15_7,5f461dd6c139dd6b46c7596cbd57cd79
184,1,"""","""","""","""","""",sampler,7,323288,0.0-6.0-1.0,4036,img/Cobalt.png,"""","""","""",false,-1,1.327871895726354,10,"""","""","""","2021-08-09 16:15:48",72.239.172.164,"Mozilla/5.0 (Macintosh; Intel Mac OS X 10_15_7) AppleWebKit/537.36 (KHTML, like Gecko) Chrome/92.0.4515.131 Safari/537.36",Macintosh,Chrome,92.0.4515.131,"OS X",10_15_7,5f461dd6c139dd6b46c7596cbd57cd79
184,1,"""","""","""","""","""",sampler,8,324161,0.0-6.0-2.0,468,img/Cobalt.png,"""","""","""",false,-1,13.183964694128859,10,"""","""","""","2021-08-09 16:15:48",72.239.172.164,"Mozilla/5.0 (Macintosh; Intel Mac OS X 10_15_7) AppleWebKit/537.36 (KHTML, like Gecko) Chrome/92.0.4515.131 Safari/537.36",Macintosh,Chrome,92.0.4515.131,"OS X",10_15_7,5f461dd6c139dd6b46c7596cbd57cd79
184,1,"""","""","""","""","""",sampler,9,324803,0.0-6.0-3.0,232,img/Cobalt.png,"""","""","""",false,-1,-15.707146646956105,10,"""","""","""","2021-08-09 16:15:48",72.239.172.164,"Mozilla/5.0 (Macintosh; Intel Mac OS X 10_15_7) AppleWebKit/537.36 (KHTML, like Gecko) Chrome/92.0.4515.131 Safari/537.36",Macintosh,Chrome,92.0.4515.131,"OS X",10_15_7,5f461dd6c139dd6b46c7596cbd57cd79
184,1,"""","""","""","""","""",sampler,10,325732,0.0-6.0-4.0,521,img/Cobalt.png,"""","""","""",false,-1,25.14545812182739,10,"""","""","""","2021-08-09 16:15:48",72.239.172.164,"Mozilla/5.0 (Macintosh; Intel Mac OS X 10_15_7) AppleWebKit/537.36 (KHTML, like Gecko) Chrome/92.0.4515.131 Safari/537.36",Macintosh,Chrome,92.0.4515.131,"OS X",10_15_7,5f461dd6c139dd6b46c7596cbd57cd79
184,1,"""","""","""","""","""",sampler,11,326344,0.0-6.0-5.0,207,img/Cobalt.png,"""","""","""",false,-1,16.22312527280054,10,"""","""","""","2021-08-09 16:15:48",72.239.172.164,"Mozilla/5.0 (Macintosh; Intel Mac OS X 10_15_7) AppleWebKit/537.36 (KHTML, like Gecko) Chrome/92.0.4515.131 Safari/537.36",Macintosh,Chrome,92.0.4515.131,"OS X",10_15_7,5f461dd6c139dd6b46c7596cbd57cd79
184,1,"""","""","""","""","""",sampler,12,326793,0.0-6.0-6.0,45,img/Cobalt.png,"""","""","""",false,-1,-0.4973715001252623,10,"""","""","""","2021-08-09 16:15:48",72.239.172.164,"Mozilla/5.0 (Macintosh; Intel Mac OS X 10_15_7) AppleWebKit/537.36 (KHTML, like Gecko) Chrome/92.0.4515.131 Safari/537.36",Macintosh,Chrome,92.0.4515.131,"OS X",10_15_7,5f461dd6c139dd6b46c7596cbd57cd79
184,1,"""","""","""","""","""",sampler,13,327583,0.0-6.0-7.0,383,img/Cobalt.png,"""","""","""",false,-1,-4.044854595651291,10,"""","""","""","2021-08-09 16:15:48",72.239.172.164,"Mozilla/5.0 (Macintosh; Intel Mac OS X 10_15_7) AppleWebKit/537.36 (KHTML, like Gecko) Chrome/92.0.4515.131 Safari/537.36",Macintosh,Chrome,92.0.4515.131,"OS X",10_15_7,5f461dd6c139dd6b46c7596cbd57cd79
184,1,"""","""","""","""","""",sampler,14,328373,0.0-6.0-8.0,380,img/Cobalt.png,"""","""","""",false,-1,8.224736659479047,10,"""","""","""","2021-08-09 16:15:48",72.239.172.164,"Mozilla/5.0 (Macintosh; Intel Mac OS X 10_15_7) AppleWebKit/537.36 (KHTML, like Gecko) Chrome/92.0.4515.131 Safari/537.36",Macintosh,Chrome,92.0.4515.131,"OS X",10_15_7,5f461dd6c139dd6b46c7596cbd57cd79
184,1,"""","""","""","""","""",sampler,15,328895,0.0-6.0-9.0,116,img/Cobalt.png,"""","""","""",false,-1,-11.840837333562373,10,"""","""","""","2021-08-09 16:15:48",72.239.172.164,"Mozilla/5.0 (Macintosh; Intel Mac OS X 10_15_7) AppleWebKit/537.36 (KHTML, like Gecko) Chrome/92.0.4515.131 Safari/537.36",Macintosh,Chrome,92.0.4515.131,"OS X",10_15_7,5f461dd6c139dd6b46c7596cbd57cd79
184,1,"""","""","""","""","""",sampler,16,329441,0.0-6.0-10.0,139,img/Cobalt.png,"""","""","""",false,-1,7.506781301053775,10,"""","""","""","2021-08-09 16:15:48",72.239.172.164,"Mozilla/5.0 (Macintosh; Intel Mac OS X 10_15_7) AppleWebKit/537.36 (KHTML, like Gecko) Chrome/92.0.4515.131 Safari/537.36",Macintosh,Chrome,92.0.4515.131,"OS X",10_15_7,5f461dd6c139dd6b46c7596cbd57cd79
184,1,"""","""","""","""","""",sampler,17,329881,0.0-6.0-11.0,32,img/Cobalt.png,"""","""","""",false,-1,-2.0313874941544245,10,"""","""","""","2021-08-09 16:15:48",72.239.172.164,"Mozilla/5.0 (Macintosh; Intel Mac OS X 10_15_7) AppleWebKit/537.36 (KHTML, like Gecko) Chrome/92.0.4515.131 Safari/537.36",Macintosh,Chrome,92.0.4515.131,"OS X",10_15_7,5f461dd6c139dd6b46c7596cbd57cd79
184,1,"""","""","""","""","""",sampler,18,330406,0.0-6.0-12.0,120,img/Cobalt.png,"""","""","""",false,-1,0.1644122875451437,10,"""","""","""","2021-08-09 16:15:48",72.239.172.164,"Mozilla/5.0 (Macintosh; Intel Mac OS X 10_15_7) AppleWebKit/537.36 (KHTML, like Gecko) Chrome/92.0.4515.131 Safari/537.36",Macintosh,Chrome,92.0.4515.131,"OS X",10_15_7,5f461dd6c139dd6b46c7596cbd57cd79
184,1,"""","""","""","""","""",sampler,19,330845,0.0-6.0-13.0,33,img/Cobalt.png,"""","""","""",false,-1,11.002207465863751,10,"""","""","""","2021-08-09 16:15:48",72.239.172.164,"Mozilla/5.0 (Macintosh; Intel Mac OS X 10_15_7) AppleWebKit/537.36 (KHTML, like Gecko) Chrome/92.0.4515.131 Safari/537.36",Macintosh,Chrome,92.0.4515.131,"OS X",10_15_7,5f461dd6c139dd6b46c7596cbd57cd79
184,1,"""","""","""","""","""",sampler,20,331252,0.0-6.0-14.0,2,img/Cobalt.png,"""","""","""",false,-1,-6.50264852236738,10,"""","""","""","2021-08-09 16:15:48",72.239.172.164,"Mozilla/5.0 (Macintosh; Intel Mac OS X 10_15_7) AppleWebKit/537.36 (KHTML, like Gecko) Chrome/92.0.4515.131 Safari/537.36",Macintosh,Chrome,92.0.4515.131,"OS X",10_15_7,5f461dd6c139dd6b46c7596cbd57cd79
184,1,"""","""","""","""","""",sampler,21,331699,0.0-6.0-15.0,40,img/Cobalt.png,"""","""","""",false,-1,-1.2112458978788974,10,"""","""","""","2021-08-09 16:15:48",72.239.172.164,"Mozilla/5.0 (Macintosh; Intel Mac OS X 10_15_7) AppleWebKit/537.36 (KHTML, like Gecko) Chrome/92.0.4515.131 Safari/537.36",Macintosh,Chrome,92.0.4515.131,"OS X",10_15_7,5f461dd6c139dd6b46c7596cbd57cd79
184,1,"""","""","""","""","""",sampler,22,332132,0.0-6.0-16.0,25,img/Cobalt.png,"""","""","""",false,-1,9.192297768207895,10,"""","""","""","2021-08-09 16:15:48",72.239.172.164,"Mozilla/5.0 (Macintosh; Intel Mac OS X 10_15_7) AppleWebKit/537.36 (KHTML, like Gecko) Chrome/92.0.4515.131 Safari/537.36",Macintosh,Chrome,92.0.4515.131,"OS X",10_15_7,5f461dd6c139dd6b46c7596cbd57cd79
184,1,"""","""","""","""","""",sampler,23,332543,0.0-6.0-17.0,6,img/Cobalt.png,"""","""","""",false,-1,18.030209216542204,10,"""","""","""","2021-08-09 16:15:48",72.239.172.164,"Mozilla/5.0 (Macintosh; Intel Mac OS X 10_15_7) AppleWebKit/537.36 (KHTML, like Gecko) Chrome/92.0.4515.131 Safari/537.36",Macintosh,Chrome,92.0.4515.131,"OS X",10_15_7,5f461dd6c139dd6b46c7596cbd57cd79
184,1,"""","""","""","""","""",sampler,24,333297,0.0-6.0-18.0,348,img/Cobalt.png,"""","""","""",false,-1,6.654175851090674,10,"""","""","""","2021-08-09 16:15:48",72.239.172.164,"Mozilla/5.0 (Macintosh; Intel Mac OS X 10_15_7) AppleWebKit/537.36 (KHTML, like Gecko) Chrome/92.0.4515.131 Safari/537.36",Macintosh,Chrome,92.0.4515.131,"OS X",10_15_7,5f461dd6c139dd6b46c7596cbd57cd79
184,1,"""","""","""","""","""",sampler,25,333892,0.0-6.0-19.0,186,img/Cobalt.png,"""","""","""",false,-1,-5.8280497038947345,10,"""","""","""","2021-08-09 16:15:48",72.239.172.164,"Mozilla/5.0 (Macintosh; Intel Mac OS X 10_15_7) AppleWebKit/537.36 (KHTML, like Gecko) Chrome/92.0.4515.131 Safari/537.36",Macintosh,Chrome,92.0.4515.131,"OS X",10_15_7,5f461dd6c139dd6b46c7596cbd57cd79
184,1,"""","""","""","""","""",sampler,26,334807,0.0-6.0-20.0,510,img/Cobalt.png,"""","""","""",false,-1,9.910728950060305,10,"""","""","""","2021-08-09 16:15:48",72.239.172.164,"Mozilla/5.0 (Macintosh; Intel Mac OS X 10_15_7) AppleWebKit/537.36 (KHTML, like Gecko) Chrome/92.0.4515.131 Safari/537.36",Macintosh,Chrome,92.0.4515.131,"OS X",10_15_7,5f461dd6c139dd6b46c7596cbd57cd79
184,1,"""","""","""","""","""",sampler,27,335297,0.0-6.0-21.0,78,img/Cobalt.png,"""","""","""",false,-1,6.847313313464632,10,"""","""","""","2021-08-09 16:15:48",72.239.172.164,"Mozilla/5.0 (Macintosh; Intel Mac OS X 10_15_7) AppleWebKit/537.36 (KHTML, like Gecko) Chrome/92.0.4515.131 Safari/537.36",Macintosh,Chrome,92.0.4515.131,"OS X",10_15_7,5f461dd6c139dd6b46c7596cbd57cd79
184,1,"""","""","""","""","""",sampler,28,335792,0.0-6.0-22.0,85,img/Cobalt.png,"""","""","""",false,-1,10.354058538453538,10,"""","""","""","2021-08-09 16:15:48",72.239.172.164,"Mozilla/5.0 (Macintosh; Intel Mac OS X 10_15_7) AppleWebKit/537.36 (KHTML, like Gecko) Chrome/92.0.4515.131 Safari/537.36",Macintosh,Chrome,92.0.4515.131,"OS X",10_15_7,5f461dd6c139dd6b46c7596cbd57cd79
184,1,"""","""","""","""","""",sampler,29,336227,0.0-6.0-23.0,30,img/Cobalt.png,"""","""","""",false,-1,25.70345632891848,10,"""","""","""","2021-08-09 16:15:48",72.239.172.164,"Mozilla/5.0 (Macintosh; Intel Mac OS X 10_15_7) AppleWebKit/537.36 (KHTML, like Gecko) Chrome/92.0.4515.131 Safari/537.36",Macintosh,Chrome,92.0.4515.131,"OS X",10_15_7,5f461dd6c139dd6b46c7596cbd57cd79
184,1,"""","""","""","""","""",sampler,30,336658,0.0-6.0-24.0,23,img/Cobalt.png,"""","""","""",false,-1,-0.5488281962910628,10,"""","""","""","2021-08-09 16:15:48",72.239.172.164,"Mozilla/5.0 (Macintosh; Intel Mac OS X 10_15_7) AppleWebKit/537.36 (KHTML, like Gecko) Chrome/92.0.4515.131 Safari/537.36",Macintosh,Chrome,92.0.4515.131,"OS X",10_15_7,5f461dd6c139dd6b46c7596cbd57cd79
184,1,"""","""","""","""","""",sampler,31,337080,0.0-6.0-25.0,16,img/Cobalt.png,"""","""","""",false,-1,-2.889178896249194,10,"""","""","""","2021-08-09 16:15:48",72.239.172.164,"Mozilla/5.0 (Macintosh; Intel Mac OS X 10_15_7) AppleWebKit/537.36 (KHTML, like Gecko) Chrome/92.0.4515.131 Safari/537.36",Macintosh,Chrome,92.0.4515.131,"OS X",10_15_7,5f461dd6c139dd6b46c7596cbd57cd79
184,1,"""","""","""","""","""",sampler,32,337660,0.0-6.0-26.0,172,img/Cobalt.png,"""","""","""",false,-1,12.764747245996642,10,"""","""","""","2021-08-09 16:15:48",72.239.172.164,"Mozilla/5.0 (Macintosh; Intel Mac OS X 10_15_7) AppleWebKit/537.36 (KHTML, like Gecko) Chrome/92.0.4515.131 Safari/537.36",Macintosh,Chrome,92.0.4515.131,"OS X",10_15_7,5f461dd6c139dd6b46c7596cbd57cd79
184,1,"""","""","""","""","""",sampler,33,338167,0.0-6.0-27.0,99,img/Cobalt.png,"""","""","""",false,-1,7.904280417467395,10,"""","""","""","2021-08-09 16:15:48",72.239.172.164,"Mozilla/5.0 (Macintosh; Intel Mac OS X 10_15_7) AppleWebKit/537.36 (KHTML, like Gecko) Chrome/92.0.4515.131 Safari/537.36",Macintosh,Chrome,92.0.4515.131,"OS X",10_15_7,5f461dd6c139dd6b46c7596cbd57cd79
184,1,"""","""","""","""","""",sampler,34,338613,0.0-6.0-28.0,40,img/Cobalt.png,"""","""","""",false,-1,2.9092138782217747,10,"""","""","""","2021-08-09 16:15:48",72.239.172.164,"Mozilla/5.0 (Macintosh; Intel Mac OS X 10_15_7) AppleWebKit/537.36 (KHTML, like Gecko) Chrome/92.0.4515.131 Safari/537.36",Macintosh,Chrome,92.0.4515.131,"OS X",10_15_7,5f461dd6c139dd6b46c7596cbd57cd79
184,1,"""","""","""","""","""",sampler,35,339489,0.0-6.0-29.0,471,img/Cobalt.png,"""","""","""",false,-1,-17.926296897908642,10,"""","""","""","2021-08-09 16:15:48",72.239.172.164,"Mozilla/5.0 (Macintosh; Intel Mac OS X 10_15_7) AppleWebKit/537.36 (KHTML, like Gecko) Chrome/92.0.4515.131 Safari/537.36",Macintosh,Chrome,92.0.4515.131,"OS X",10_15_7,5f461dd6c139dd6b46c7596cbd57cd79
184,1,"""","""","""","""","""",sampler,36,340166,0.0-6.0-30.0,269,img/Cobalt.png,"""","""","""",false,-1,4.225885947221144,10,"""","""","""","2021-08-09 16:15:48",72.239.172.164,"Mozilla/5.0 (Macintosh; Intel Mac OS X 10_15_7) AppleWebKit/537.36 (KHTML, like Gecko) Chrome/92.0.4515.131 Safari/537.36",Macintosh,Chrome,92.0.4515.131,"OS X",10_15_7,5f461dd6c139dd6b46c7596cbd57cd79
184,1,"""","""","""","""","""",sampler,37,340703,0.0-6.0-31.0,126,img/Cobalt.png,"""","""","""",false,-1,-13.552541840938904,10,"""","""","""","2021-08-09 16:15:48",72.239.172.164,"Mozilla/5.0 (Macintosh; Intel Mac OS X 10_15_7) AppleWebKit/537.36 (KHTML, like Gecko) Chrome/92.0.4515.131 Safari/537.36",Macintosh,Chrome,92.0.4515.131,"OS X",10_15_7,5f461dd6c139dd6b46c7596cbd57cd79
184,1,"""","""","""","""","""",sampler,38,341161,0.0-6.0-32.0,49,img/Cobalt.png,"""","""","""",false,-1,-12.323554755978332,10,"""","""","""","2021-08-09 16:15:48",72.239.172.164,"Mozilla/5.0 (Macintosh; Intel Mac OS X 10_15_7) AppleWebKit/537.36 (KHTML, like Gecko) Chrome/92.0.4515.131 Safari/537.36",Macintosh,Chrome,92.0.4515.131,"OS X",10_15_7,5f461dd6c139dd6b46c7596cbd57cd79
184,1,"""","""","""","""","""",sampler,39,344905,0.0-6.0-33.0,3336,img/Cobalt.png,"""","""","""",false,-1,0.173411380637555,10,"""","""","""","2021-08-09 16:15:48",72.239.172.164,"Mozilla/5.0 (Macintosh; Intel Mac OS X 10_15_7) AppleWebKit/537.36 (KHTML, like Gecko) Chrome/92.0.4515.131 Safari/537.36",Macintosh,Chrome,92.0.4515.131,"OS X",10_15_7,5f461dd6c139dd6b46c7596cbd57cd79
184,1,"""","""","""","""","""",sampler,40,346277,0.0-6.0-34.0,966,img/Cobalt.png,"""","""","""",false,-1,15.897201963912556,10,"""","""","""","2021-08-09 16:15:48",72.239.172.164,"Mozilla/5.0 (Macintosh; Intel Mac OS X 10_15_7) AppleWebKit/537.36 (KHTML, like Gecko) Chrome/92.0.4515.131 Safari/537.36",Macintosh,Chrome,92.0.4515.131,"OS X",10_15_7,5f461dd6c139dd6b46c7596cbd57cd79
184,1,"""","""","""","""","""",sampler,41,346281,0.0-6.0-35.0,"""","""","""","""","""","""","""","""","""","""","""","""","2021-08-09 16:15:48",72.239.172.164,"Mozilla/5.0 (Macintosh; Intel Mac OS X 10_15_7) AppleWebKit/537.36 (KHTML, like Gecko) Chrome/92.0.4515.131 Safari/537.36",Macintosh,Chrome,92.0.4515.131,"OS X",10_15_7,5f461dd6c139dd6b46c7596cbd57cd79
184,1,"""","""","""","""","""",sampler,42,346281,0.0-6.0-36.0,"""","""","""","""","""","""","""","""","""","""","""","""","2021-08-09 16:15:48",72.239.172.164,"Mozilla/5.0 (Macintosh; Intel Mac OS X 10_15_7) AppleWebKit/537.36 (KHTML, like Gecko) Chrome/92.0.4515.131 Safari/537.36",Macintosh,Chrome,92.0.4515.131,"OS X",10_15_7,5f461dd6c139dd6b46c7596cbd57cd79
184,1,"""","""","""","""","""",sampler,43,346281,0.0-6.0-37.0,"""","""","""","""","""","""","""","""","""","""","""","""","2021-08-09 16:15:48",72.239.172.164,"Mozilla/5.0 (Macintosh; Intel Mac OS X 10_15_7) AppleWebKit/537.36 (KHTML, like Gecko) Chrome/92.0.4515.131 Safari/537.36",Macintosh,Chrome,92.0.4515.131,"OS X",10_15_7,5f461dd6c139dd6b46c7596cbd57cd79
184,1,"""","""","""","""","""",sampler,44,346281,0.0-6.0-38.0,"""","""","""","""","""","""","""","""","""","""","""","""","2021-08-09 16:15:48",72.239.172.164,"Mozilla/5.0 (Macintosh; Intel Mac OS X 10_15_7) AppleWebKit/537.36 (KHTML, like Gecko) Chrome/92.0.4515.131 Safari/537.36",Macintosh,Chrome,92.0.4515.131,"OS X",10_15_7,5f461dd6c139dd6b46c7596cbd57cd79
184,1,"""","""","""","""","""",sampler,45,346282,0.0-6.0-39.0,"""","""","""","""","""","""","""","""","""","""","""","""","2021-08-09 16:15:48",72.239.172.164,"Mozilla/5.0 (Macintosh; Intel Mac OS X 10_15_7) AppleWebKit/537.36 (KHTML, like Gecko) Chrome/92.0.4515.131 Safari/537.36",Macintosh,Chrome,92.0.4515.131,"OS X",10_15_7,5f461dd6c139dd6b46c7596cbd57cd79
184,1,"""","""","""","""","""",sampler,46,346282,0.0-6.0-40.0,"""","""","""","""","""","""","""","""","""","""","""","""","2021-08-09 16:15:48",72.239.172.164,"Mozilla/5.0 (Macintosh; Intel Mac OS X 10_15_7) AppleWebKit/537.36 (KHTML, like Gecko) Chrome/92.0.4515.131 Safari/537.36",Macintosh,Chrome,92.0.4515.131,"OS X",10_15_7,5f461dd6c139dd6b46c7596cbd57cd79
184,1,"""","""","""","""","""",sampler,47,346282,0.0-6.0-41.0,"""","""","""","""","""","""","""","""","""","""","""","""","2021-08-09 16:15:48",72.239.172.164,"Mozilla/5.0 (Macintosh; Intel Mac OS X 10_15_7) AppleWebKit/537.36 (KHTML, like Gecko) Chrome/92.0.4515.131 Safari/537.36",Macintosh,Chrome,92.0.4515.131,"OS X",10_15_7,5f461dd6c139dd6b46c7596cbd57cd79
184,1,"""","""","""","""","""",sampler,48,346282,0.0-6.0-42.0,"""","""","""","""","""","""","""","""","""","""","""","""","2021-08-09 16:15:48",72.239.172.164,"Mozilla/5.0 (Macintosh; Intel Mac OS X 10_15_7) AppleWebKit/537.36 (KHTML, like Gecko) Chrome/92.0.4515.131 Safari/537.36",Macintosh,Chrome,92.0.4515.131,"OS X",10_15_7,5f461dd6c139dd6b46c7596cbd57cd79
184,1,"""","""","""","""","""",sampler,49,346283,0.0-6.0-43.0,"""","""","""","""","""","""","""","""","""","""","""","""","2021-08-09 16:15:48",72.239.172.164,"Mozilla/5.0 (Macintosh; Intel Mac OS X 10_15_7) AppleWebKit/537.36 (KHTML, like Gecko) Chrome/92.0.4515.131 Safari/537.36",Macintosh,Chrome,92.0.4515.131,"OS X",10_15_7,5f461dd6c139dd6b46c7596cbd57cd79
184,1,"""","""","""","""","""",sampler,50,346283,0.0-6.0-44.0,"""","""","""","""","""","""","""","""","""","""","""","""","2021-08-09 16:15:48",72.239.172.164,"Mozilla/5.0 (Macintosh; Intel Mac OS X 10_15_7) AppleWebKit/537.36 (KHTML, like Gecko) Chrome/92.0.4515.131 Safari/537.36",Macintosh,Chrome,92.0.4515.131,"OS X",10_15_7,5f461dd6c139dd6b46c7596cbd57cd79
184,1,"""","""","""","""","""",sampler,51,346283,0.0-6.0-45.0,"""","""","""","""","""","""","""","""","""","""","""","""","2021-08-09 16:15:48",72.239.172.164,"Mozilla/5.0 (Macintosh; Intel Mac OS X 10_15_7) AppleWebKit/537.36 (KHTML, like Gecko) Chrome/92.0.4515.131 Safari/537.36",Macintosh,Chrome,92.0.4515.131,"OS X",10_15_7,5f461dd6c139dd6b46c7596cbd57cd79
184,1,"""","""","""","""","""",sampler,52,346283,0.0-6.0-46.0,"""","""","""","""","""","""","""","""","""","""","""","""","2021-08-09 16:15:48",72.239.172.164,"Mozilla/5.0 (Macintosh; Intel Mac OS X 10_15_7) AppleWebKit/537.36 (KHTML, like Gecko) Chrome/92.0.4515.131 Safari/537.36",Macintosh,Chrome,92.0.4515.131,"OS X",10_15_7,5f461dd6c139dd6b46c7596cbd57cd79
184,1,"""","""","""","""","""",sampler,53,346283,0.0-6.0-47.0,"""","""","""","""","""","""","""","""","""","""","""","""","2021-08-09 16:15:48",72.239.172.164,"Mozilla/5.0 (Macintosh; Intel Mac OS X 10_15_7) AppleWebKit/537.36 (KHTML, like Gecko) Chrome/92.0.4515.131 Safari/537.36",Macintosh,Chrome,92.0.4515.131,"OS X",10_15_7,5f461dd6c139dd6b46c7596cbd57cd79
184,1,"""","""","""","""","""",sampler,54,346283,0.0-6.0-48.0,"""","""","""","""","""","""","""","""","""","""","""","""","2021-08-09 16:15:48",72.239.172.164,"Mozilla/5.0 (Macintosh; Intel Mac OS X 10_15_7) AppleWebKit/537.36 (KHTML, like Gecko) Chrome/92.0.4515.131 Safari/537.36",Macintosh,Chrome,92.0.4515.131,"OS X",10_15_7,5f461dd6c139dd6b46c7596cbd57cd79
184,1,"""","""","""","""","""",sampler,55,346284,0.0-6.0-49.0,"""","""","""","""","""","""","""","""","""","""","""","""","2021-08-09 16:15:48",72.239.172.164,"Mozilla/5.0 (Macintosh; Intel Mac OS X 10_15_7) AppleWebKit/537.36 (KHTML, like Gecko) Chrome/92.0.4515.131 Safari/537.36",Macintosh,Chrome,92.0.4515.131,"OS X",10_15_7,5f461dd6c139dd6b46c7596cbd57cd79
184,1,"""","""","""","""","""",sampler,56,346284,0.0-6.0-50.0,"""","""","""","""","""","""","""","""","""","""","""","""","2021-08-09 16:15:48",72.239.172.164,"Mozilla/5.0 (Macintosh; Intel Mac OS X 10_15_7) AppleWebKit/537.36 (KHTML, like Gecko) Chrome/92.0.4515.131 Safari/537.36",Macintosh,Chrome,92.0.4515.131,"OS X",10_15_7,5f461dd6c139dd6b46c7596cbd57cd79
184,1,"""","""","""","""","""",sampler,57,346284,0.0-6.0-51.0,"""","""","""","""","""","""","""","""","""","""","""","""","2021-08-09 16:15:48",72.239.172.164,"Mozilla/5.0 (Macintosh; Intel Mac OS X 10_15_7) AppleWebKit/537.36 (KHTML, like Gecko) Chrome/92.0.4515.131 Safari/537.36",Macintosh,Chrome,92.0.4515.131,"OS X",10_15_7,5f461dd6c139dd6b46c7596cbd57cd79
184,1,"""","""","""","""","""",sampler,58,346284,0.0-6.0-52.0,"""","""","""","""","""","""","""","""","""","""","""","""","2021-08-09 16:15:48",72.239.172.164,"Mozilla/5.0 (Macintosh; Intel Mac OS X 10_15_7) AppleWebKit/537.36 (KHTML, like Gecko) Chrome/92.0.4515.131 Safari/537.36",Macintosh,Chrome,92.0.4515.131,"OS X",10_15_7,5f461dd6c139dd6b46c7596cbd57cd79
184,1,"""","""","""","""","""",sampler,59,346284,0.0-6.0-53.0,"""","""","""","""","""","""","""","""","""","""","""","""","2021-08-09 16:15:48",72.239.172.164,"Mozilla/5.0 (Macintosh; Intel Mac OS X 10_15_7) AppleWebKit/537.36 (KHTML, like Gecko) Chrome/92.0.4515.131 Safari/537.36",Macintosh,Chrome,92.0.4515.131,"OS X",10_15_7,5f461dd6c139dd6b46c7596cbd57cd79
184,1,"""","""","""","""","""",sampler,60,346285,0.0-6.0-54.0,"""","""","""","""","""","""","""","""","""","""","""","""","2021-08-09 16:15:48",72.239.172.164,"Mozilla/5.0 (Macintosh; Intel Mac OS X 10_15_7) AppleWebKit/537.36 (KHTML, like Gecko) Chrome/92.0.4515.131 Safari/537.36",Macintosh,Chrome,92.0.4515.131,"OS X",10_15_7,5f461dd6c139dd6b46c7596cbd57cd79
184,1,"""","""","""","""","""",sampler,61,346285,0.0-6.0-55.0,"""","""","""","""","""","""","""","""","""","""","""","""","2021-08-09 16:15:48",72.239.172.164,"Mozilla/5.0 (Macintosh; Intel Mac OS X 10_15_7) AppleWebKit/537.36 (KHTML, like Gecko) Chrome/92.0.4515.131 Safari/537.36",Macintosh,Chrome,92.0.4515.131,"OS X",10_15_7,5f461dd6c139dd6b46c7596cbd57cd79
184,1,"""","""","""","""","""",sampler,62,346285,0.0-6.0-56.0,"""","""","""","""","""","""","""","""","""","""","""","""","2021-08-09 16:15:48",72.239.172.164,"Mozilla/5.0 (Macintosh; Intel Mac OS X 10_15_7) AppleWebKit/537.36 (KHTML, like Gecko) Chrome/92.0.4515.131 Safari/537.36",Macintosh,Chrome,92.0.4515.131,"OS X",10_15_7,5f461dd6c139dd6b46c7596cbd57cd79
184,1,"""","""","""","""","""",sampler,63,346285,0.0-6.0-57.0,"""","""","""","""","""","""","""","""","""","""","""","""","2021-08-09 16:15:48",72.239.172.164,"Mozilla/5.0 (Macintosh; Intel Mac OS X 10_15_7) AppleWebKit/537.36 (KHTML, like Gecko) Chrome/92.0.4515.131 Safari/537.36",Macintosh,Chrome,92.0.4515.131,"OS X",10_15_7,5f461dd6c139dd6b46c7596cbd57cd79
184,1,"""","""","""","""","""",sampler,64,346285,0.0-6.0-58.0,"""","""","""","""","""","""","""","""","""","""","""","""","2021-08-09 16:15:48",72.239.172.164,"Mozilla/5.0 (Macintosh; Intel Mac OS X 10_15_7) AppleWebKit/537.36 (KHTML, like Gecko) Chrome/92.0.4515.131 Safari/537.36",Macintosh,Chrome,92.0.4515.131,"OS X",10_15_7,5f461dd6c139dd6b46c7596cbd57cd79
184,1,"""","""","""","""","""",sampler,65,346285,0.0-6.0-59.0,"""","""","""","""","""","""","""","""","""","""","""","""","2021-08-09 16:15:48",72.239.172.164,"Mozilla/5.0 (Macintosh; Intel Mac OS X 10_15_7) AppleWebKit/537.36 (KHTML, like Gecko) Chrome/92.0.4515.131 Safari/537.36",Macintosh,Chrome,92.0.4515.131,"OS X",10_15_7,5f461dd6c139dd6b46c7596cbd57cd79
184,1,"""","""","""","""","""",sampler,66,346285,0.0-6.0-60.0,"""","""","""","""","""","""","""","""","""","""","""","""","2021-08-09 16:15:48",72.239.172.164,"Mozilla/5.0 (Macintosh; Intel Mac OS X 10_15_7) AppleWebKit/537.36 (KHTML, like Gecko) Chrome/92.0.4515.131 Safari/537.36",Macintosh,Chrome,92.0.4515.131,"OS X",10_15_7,5f461dd6c139dd6b46c7596cbd57cd79
184,1,"""","""","""","""","""",sampler,67,346286,0.0-6.0-61.0,"""","""","""","""","""","""","""","""","""","""","""","""","2021-08-09 16:15:48",72.239.172.164,"Mozilla/5.0 (Macintosh; Intel Mac OS X 10_15_7) AppleWebKit/537.36 (KHTML, like Gecko) Chrome/92.0.4515.131 Safari/537.36",Macintosh,Chrome,92.0.4515.131,"OS X",10_15_7,5f461dd6c139dd6b46c7596cbd57cd79
184,1,"""","""","""","""","""",sampler,68,346286,0.0-6.0-62.0,"""","""","""","""","""","""","""","""","""","""","""","""","2021-08-09 16:15:48",72.239.172.164,"Mozilla/5.0 (Macintosh; Intel Mac OS X 10_15_7) AppleWebKit/537.36 (KHTML, like Gecko) Chrome/92.0.4515.131 Safari/537.36",Macintosh,Chrome,92.0.4515.131,"OS X",10_15_7,5f461dd6c139dd6b46c7596cbd57cd79
184,1,"""","""","""","""","""",sampler,69,346286,0.0-6.0-63.0,"""","""","""","""","""","""","""","""","""","""","""","""","2021-08-09 16:15:48",72.239.172.164,"Mozilla/5.0 (Macintosh; Intel Mac OS X 10_15_7) AppleWebKit/537.36 (KHTML, like Gecko) Chrome/92.0.4515.131 Safari/537.36",Macintosh,Chrome,92.0.4515.131,"OS X",10_15_7,5f461dd6c139dd6b46c7596cbd57cd79
184,1,"""","""","""","""","""",sampler,70,346287,0.0-6.0-64.0,"""","""","""","""","""","""","""","""","""","""","""","""","2021-08-09 16:15:48",72.239.172.164,"Mozilla/5.0 (Macintosh; Intel Mac OS X 10_15_7) AppleWebKit/537.36 (KHTML, like Gecko) Chrome/92.0.4515.131 Safari/537.36",Macintosh,Chrome,92.0.4515.131,"OS X",10_15_7,5f461dd6c139dd6b46c7596cbd57cd79
184,1,"""","""","""","""","""",sampler,71,346288,0.0-6.0-65.0,"""","""","""","""","""","""","""","""","""","""","""","""","2021-08-09 16:15:48",72.239.172.164,"Mozilla/5.0 (Macintosh; Intel Mac OS X 10_15_7) AppleWebKit/537.36 (KHTML, like Gecko) Chrome/92.0.4515.131 Safari/537.36",Macintosh,Chrome,92.0.4515.131,"OS X",10_15_7,5f461dd6c139dd6b46c7596cbd57cd79
184,1,"""","""","""","""","""",sampler,72,346288,0.0-6.0-66.0,"""","""","""","""","""","""","""","""","""","""","""","""","2021-08-09 16:15:48",72.239.172.164,"Mozilla/5.0 (Macintosh; Intel Mac OS X 10_15_7) AppleWebKit/537.36 (KHTML, like Gecko) Chrome/92.0.4515.131 Safari/537.36",Macintosh,Chrome,92.0.4515.131,"OS X",10_15_7,5f461dd6c139dd6b46c7596cbd57cd79
184,1,"""","""","""","""","""",sampler,73,346288,0.0-6.0-67.0,"""","""","""","""","""","""","""","""","""","""","""","""","2021-08-09 16:15:48",72.239.172.164,"Mozilla/5.0 (Macintosh; Intel Mac OS X 10_15_7) AppleWebKit/537.36 (KHTML, like Gecko) Chrome/92.0.4515.131 Safari/537.36",Macintosh,Chrome,92.0.4515.131,"OS X",10_15_7,5f461dd6c139dd6b46c7596cbd57cd79
184,1,"""","""","""","""","""",sampler,74,346288,0.0-6.0-68.0,"""","""","""","""","""","""","""","""","""","""","""","""","2021-08-09 16:15:48",72.239.172.164,"Mozilla/5.0 (Macintosh; Intel Mac OS X 10_15_7) AppleWebKit/537.36 (KHTML, like Gecko) Chrome/92.0.4515.131 Safari/537.36",Macintosh,Chrome,92.0.4515.131,"OS X",10_15_7,5f461dd6c139dd6b46c7596cbd57cd79
184,1,"""","""","""","""","""",sampler,75,346288,0.0-6.0-69.0,"""","""","""","""","""","""","""","""","""","""","""","""","2021-08-09 16:15:48",72.239.172.164,"Mozilla/5.0 (Macintosh; Intel Mac OS X 10_15_7) AppleWebKit/537.36 (KHTML, like Gecko) Chrome/92.0.4515.131 Safari/537.36",Macintosh,Chrome,92.0.4515.131,"OS X",10_15_7,5f461dd6c139dd6b46c7596cbd57cd79
184,1,"""","""","""","""","""",sampler,76,346288,0.0-6.0-70.0,"""","""","""","""","""","""","""","""","""","""","""","""","2021-08-09 16:15:48",72.239.172.164,"Mozilla/5.0 (Macintosh; Intel Mac OS X 10_15_7) AppleWebKit/537.36 (KHTML, like Gecko) Chrome/92.0.4515.131 Safari/537.36",Macintosh,Chrome,92.0.4515.131,"OS X",10_15_7,5f461dd6c139dd6b46c7596cbd57cd79
184,1,"""","""","""","""","""",sampler,77,346288,0.0-6.0-71.0,"""","""","""","""","""","""","""","""","""","""","""","""","2021-08-09 16:15:48",72.239.172.164,"Mozilla/5.0 (Macintosh; Intel Mac OS X 10_15_7) AppleWebKit/537.36 (KHTML, like Gecko) Chrome/92.0.4515.131 Safari/537.36",Macintosh,Chrome,92.0.4515.131,"OS X",10_15_7,5f461dd6c139dd6b46c7596cbd57cd79
184,1,"""","""","""","""","""",sampler,78,346290,0.0-6.0-72.0,"""","""","""","""","""","""","""","""","""","""","""","""","2021-08-09 16:15:48",72.239.172.164,"Mozilla/5.0 (Macintosh; Intel Mac OS X 10_15_7) AppleWebKit/537.36 (KHTML, like Gecko) Chrome/92.0.4515.131 Safari/537.36",Macintosh,Chrome,92.0.4515.131,"OS X",10_15_7,5f461dd6c139dd6b46c7596cbd57cd79
184,1,"""","""","""","""","""",sampler,79,346290,0.0-6.0-73.0,"""","""","""","""","""","""","""","""","""","""","""","""","2021-08-09 16:15:48",72.239.172.164,"Mozilla/5.0 (Macintosh; Intel Mac OS X 10_15_7) AppleWebKit/537.36 (KHTML, like Gecko) Chrome/92.0.4515.131 Safari/537.36",Macintosh,Chrome,92.0.4515.131,"OS X",10_15_7,5f461dd6c139dd6b46c7596cbd57cd79
184,1,"""","""","""","""","""",sampler,80,346290,0.0-6.0-74.0,"""","""","""","""","""","""","""","""","""","""","""","""","2021-08-09 16:15:48",72.239.172.164,"Mozilla/5.0 (Macintosh; Intel Mac OS X 10_15_7) AppleWebKit/537.36 (KHTML, like Gecko) Chrome/92.0.4515.131 Safari/537.36",Macintosh,Chrome,92.0.4515.131,"OS X",10_15_7,5f461dd6c139dd6b46c7596cbd57cd79
184,1,"""","""","""","""","""",sampler,81,346290,0.0-6.0-75.0,"""","""","""","""","""","""","""","""","""","""","""","""","2021-08-09 16:15:48",72.239.172.164,"Mozilla/5.0 (Macintosh; Intel Mac OS X 10_15_7) AppleWebKit/537.36 (KHTML, like Gecko) Chrome/92.0.4515.131 Safari/537.36",Macintosh,Chrome,92.0.4515.131,"OS X",10_15_7,5f461dd6c139dd6b46c7596cbd57cd79
184,1,"""","""","""","""","""",sampler,82,346291,0.0-6.0-76.0,"""","""","""","""","""","""","""","""","""","""","""","""","2021-08-09 16:15:48",72.239.172.164,"Mozilla/5.0 (Macintosh; Intel Mac OS X 10_15_7) AppleWebKit/537.36 (KHTML, like Gecko) Chrome/92.0.4515.131 Safari/537.36",Macintosh,Chrome,92.0.4515.131,"OS X",10_15_7,5f461dd6c139dd6b46c7596cbd57cd79
184,1,"""","""","""","""","""",sampler,83,346291,0.0-6.0-77.0,"""","""","""","""","""","""","""","""","""","""","""","""","2021-08-09 16:15:48",72.239.172.164,"Mozilla/5.0 (Macintosh; Intel Mac OS X 10_15_7) AppleWebKit/537.36 (KHTML, like Gecko) Chrome/92.0.4515.131 Safari/537.36",Macintosh,Chrome,92.0.4515.131,"OS X",10_15_7,5f461dd6c139dd6b46c7596cbd57cd79
184,1,"""","""","""","""","""",sampler,84,346291,0.0-6.0-78.0,"""","""","""","""","""","""","""","""","""","""","""","""","2021-08-09 16:15:48",72.239.172.164,"Mozilla/5.0 (Macintosh; Intel Mac OS X 10_15_7) AppleWebKit/537.36 (KHTML, like Gecko) Chrome/92.0.4515.131 Safari/537.36",Macintosh,Chrome,92.0.4515.131,"OS X",10_15_7,5f461dd6c139dd6b46c7596cbd57cd79
184,1,"""","""","""","""","""",sampler,85,346291,0.0-6.0-79.0,"""","""","""","""","""","""","""","""","""","""","""","""","2021-08-09 16:15:48",72.239.172.164,"Mozilla/5.0 (Macintosh; Intel Mac OS X 10_15_7) AppleWebKit/537.36 (KHTML, like Gecko) Chrome/92.0.4515.131 Safari/537.36",Macintosh,Chrome,92.0.4515.131,"OS X",10_15_7,5f461dd6c139dd6b46c7596cbd57cd79
184,1,"""","""","""","""","""",sampler,86,346291,0.0-6.0-80.0,"""","""","""","""","""","""","""","""","""","""","""","""","2021-08-09 16:15:48",72.239.172.164,"Mozilla/5.0 (Macintosh; Intel Mac OS X 10_15_7) AppleWebKit/537.36 (KHTML, like Gecko) Chrome/92.0.4515.131 Safari/537.36",Macintosh,Chrome,92.0.4515.131,"OS X",10_15_7,5f461dd6c139dd6b46c7596cbd57cd79
184,1,"""","""","""","""","""",sampler,87,346291,0.0-6.0-81.0,"""","""","""","""","""","""","""","""","""","""","""","""","2021-08-09 16:15:48",72.239.172.164,"Mozilla/5.0 (Macintosh; Intel Mac OS X 10_15_7) AppleWebKit/537.36 (KHTML, like Gecko) Chrome/92.0.4515.131 Safari/537.36",Macintosh,Chrome,92.0.4515.131,"OS X",10_15_7,5f461dd6c139dd6b46c7596cbd57cd79
184,1,"""","""","""","""","""",sampler,88,346292,0.0-6.0-82.0,"""","""","""","""","""","""","""","""","""","""","""","""","2021-08-09 16:15:48",72.239.172.164,"Mozilla/5.0 (Macintosh; Intel Mac OS X 10_15_7) AppleWebKit/537.36 (KHTML, like Gecko) Chrome/92.0.4515.131 Safari/537.36",Macintosh,Chrome,92.0.4515.131,"OS X",10_15_7,5f461dd6c139dd6b46c7596cbd57cd79
184,1,"""","""","""","""","""",sampler,89,346292,0.0-6.0-83.0,"""","""","""","""","""","""","""","""","""","""","""","""","2021-08-09 16:15:48",72.239.172.164,"Mozilla/5.0 (Macintosh; Intel Mac OS X 10_15_7) AppleWebKit/537.36 (KHTML, like Gecko) Chrome/92.0.4515.131 Safari/537.36",Macintosh,Chrome,92.0.4515.131,"OS X",10_15_7,5f461dd6c139dd6b46c7596cbd57cd79
184,1,"""","""","""","""","""",sampler,90,346292,0.0-6.0-84.0,"""","""","""","""","""","""","""","""","""","""","""","""","2021-08-09 16:15:48",72.239.172.164,"Mozilla/5.0 (Macintosh; Intel Mac OS X 10_15_7) AppleWebKit/537.36 (KHTML, like Gecko) Chrome/92.0.4515.131 Safari/537.36",Macintosh,Chrome,92.0.4515.131,"OS X",10_15_7,5f461dd6c139dd6b46c7596cbd57cd79
184,1,"""","""","""","""","""",sampler,91,346292,0.0-6.0-85.0,"""","""","""","""","""","""","""","""","""","""","""","""","2021-08-09 16:15:48",72.239.172.164,"Mozilla/5.0 (Macintosh; Intel Mac OS X 10_15_7) AppleWebKit/537.36 (KHTML, like Gecko) Chrome/92.0.4515.131 Safari/537.36",Macintosh,Chrome,92.0.4515.131,"OS X",10_15_7,5f461dd6c139dd6b46c7596cbd57cd79
184,1,"""","""","""","""","""",sampler,92,346292,0.0-6.0-86.0,"""","""","""","""","""","""","""","""","""","""","""","""","2021-08-09 16:15:48",72.239.172.164,"Mozilla/5.0 (Macintosh; Intel Mac OS X 10_15_7) AppleWebKit/537.36 (KHTML, like Gecko) Chrome/92.0.4515.131 Safari/537.36",Macintosh,Chrome,92.0.4515.131,"OS X",10_15_7,5f461dd6c139dd6b46c7596cbd57cd79
184,1,"""","""","""","""","""",sampler,93,346292,0.0-6.0-87.0,"""","""","""","""","""","""","""","""","""","""","""","""","2021-08-09 16:15:48",72.239.172.164,"Mozilla/5.0 (Macintosh; Intel Mac OS X 10_15_7) AppleWebKit/537.36 (KHTML, like Gecko) Chrome/92.0.4515.131 Safari/537.36",Macintosh,Chrome,92.0.4515.131,"OS X",10_15_7,5f461dd6c139dd6b46c7596cbd57cd79
184,1,"""","""","""","""","""",sampler,94,346292,0.0-6.0-88.0,"""","""","""","""","""","""","""","""","""","""","""","""","2021-08-09 16:15:48",72.239.172.164,"Mozilla/5.0 (Macintosh; Intel Mac OS X 10_15_7) AppleWebKit/537.36 (KHTML, like Gecko) Chrome/92.0.4515.131 Safari/537.36",Macintosh,Chrome,92.0.4515.131,"OS X",10_15_7,5f461dd6c139dd6b46c7596cbd57cd79
184,1,"""","""","""","""","""",sampler,95,346292,0.0-6.0-89.0,"""","""","""","""","""","""","""","""","""","""","""","""","2021-08-09 16:15:48",72.239.172.164,"Mozilla/5.0 (Macintosh; Intel Mac OS X 10_15_7) AppleWebKit/537.36 (KHTML, like Gecko) Chrome/92.0.4515.131 Safari/537.36",Macintosh,Chrome,92.0.4515.131,"OS X",10_15_7,5f461dd6c139dd6b46c7596cbd57cd79
184,1,"""","""","""","""","""",sampler,96,346292,0.0-6.0-90.0,"""","""","""","""","""","""","""","""","""","""","""","""","2021-08-09 16:15:48",72.239.172.164,"Mozilla/5.0 (Macintosh; Intel Mac OS X 10_15_7) AppleWebKit/537.36 (KHTML, like Gecko) Chrome/92.0.4515.131 Safari/537.36",Macintosh,Chrome,92.0.4515.131,"OS X",10_15_7,5f461dd6c139dd6b46c7596cbd57cd79
184,1,"""","""","""","""","""",sampler,97,346292,0.0-6.0-91.0,"""","""","""","""","""","""","""","""","""","""","""","""","2021-08-09 16:15:48",72.239.172.164,"Mozilla/5.0 (Macintosh; Intel Mac OS X 10_15_7) AppleWebKit/537.36 (KHTML, like Gecko) Chrome/92.0.4515.131 Safari/537.36",Macintosh,Chrome,92.0.4515.131,"OS X",10_15_7,5f461dd6c139dd6b46c7596cbd57cd79
184,1,"""","""","""","""","""",sampler,98,346293,0.0-6.0-92.0,"""","""","""","""","""","""","""","""","""","""","""","""","2021-08-09 16:15:48",72.239.172.164,"Mozilla/5.0 (Macintosh; Intel Mac OS X 10_15_7) AppleWebKit/537.36 (KHTML, like Gecko) Chrome/92.0.4515.131 Safari/537.36",Macintosh,Chrome,92.0.4515.131,"OS X",10_15_7,5f461dd6c139dd6b46c7596cbd57cd79
184,1,"""","""","""","""","""",sampler,99,346293,0.0-6.0-93.0,"""","""","""","""","""","""","""","""","""","""","""","""","2021-08-09 16:15:48",72.239.172.164,"Mozilla/5.0 (Macintosh; Intel Mac OS X 10_15_7) AppleWebKit/537.36 (KHTML, like Gecko) Chrome/92.0.4515.131 Safari/537.36",Macintosh,Chrome,92.0.4515.131,"OS X",10_15_7,5f461dd6c139dd6b46c7596cbd57cd79
184,1,"""","""","""","""","""",sampler,100,346293,0.0-6.0-94.0,"""","""","""","""","""","""","""","""","""","""","""","""","2021-08-09 16:15:48",72.239.172.164,"Mozilla/5.0 (Macintosh; Intel Mac OS X 10_15_7) AppleWebKit/537.36 (KHTML, like Gecko) Chrome/92.0.4515.131 Safari/537.36",Macintosh,Chrome,92.0.4515.131,"OS X",10_15_7,5f461dd6c139dd6b46c7596cbd57cd79
184,1,"""","""","""","""","""",sampler,101,346293,0.0-6.0-95.0,"""","""","""","""","""","""","""","""","""","""","""","""","2021-08-09 16:15:48",72.239.172.164,"Mozilla/5.0 (Macintosh; Intel Mac OS X 10_15_7) AppleWebKit/537.36 (KHTML, like Gecko) Chrome/92.0.4515.131 Safari/537.36",Macintosh,Chrome,92.0.4515.131,"OS X",10_15_7,5f461dd6c139dd6b46c7596cbd57cd79
184,1,"""","""","""","""","""",sampler,102,346293,0.0-6.0-96.0,"""","""","""","""","""","""","""","""","""","""","""","""","2021-08-09 16:15:48",72.239.172.164,"Mozilla/5.0 (Macintosh; Intel Mac OS X 10_15_7) AppleWebKit/537.36 (KHTML, like Gecko) Chrome/92.0.4515.131 Safari/537.36",Macintosh,Chrome,92.0.4515.131,"OS X",10_15_7,5f461dd6c139dd6b46c7596cbd57cd79
184,1,"""","""","""","""","""",sampler,103,346293,0.0-6.0-97.0,"""","""","""","""","""","""","""","""","""","""","""","""","2021-08-09 16:15:48",72.239.172.164,"Mozilla/5.0 (Macintosh; Intel Mac OS X 10_15_7) AppleWebKit/537.36 (KHTML, like Gecko) Chrome/92.0.4515.131 Safari/537.36",Macintosh,Chrome,92.0.4515.131,"OS X",10_15_7,5f461dd6c139dd6b46c7596cbd57cd79
184,1,"""","""","""","""","""",sampler,104,346293,0.0-6.0-98.0,"""","""","""","""","""","""","""","""","""","""","""","""","2021-08-09 16:15:48",72.239.172.164,"Mozilla/5.0 (Macintosh; Intel Mac OS X 10_15_7) AppleWebKit/537.36 (KHTML, like Gecko) Chrome/92.0.4515.131 Safari/537.36",Macintosh,Chrome,92.0.4515.131,"OS X",10_15_7,5f461dd6c139dd6b46c7596cbd57cd79
184,1,"""","""","""","""","""",sampler,105,346293,0.0-6.0-99.0,"""","""","""","""","""","""","""","""","""","""","""","""","2021-08-09 16:15:48",72.239.172.164,"Mozilla/5.0 (Macintosh; Intel Mac OS X 10_15_7) AppleWebKit/537.36 (KHTML, like Gecko) Chrome/92.0.4515.131 Safari/537.36",Macintosh,Chrome,92.0.4515.131,"OS X",10_15_7,5f461dd6c139dd6b46c7596cbd57cd79
184,1,"""","""","""","""","""",sampler,106,346294,0.0-6.0-100.0,"""","""","""","""","""","""","""","""","""","""","""","""","2021-08-09 16:15:48",72.239.172.164,"Mozilla/5.0 (Macintosh; Intel Mac OS X 10_15_7) AppleWebKit/537.36 (KHTML, like Gecko) Chrome/92.0.4515.131 Safari/537.36",Macintosh,Chrome,92.0.4515.131,"OS X",10_15_7,5f461dd6c139dd6b46c7596cbd57cd79
184,1,"""","""","""","""","""",sampler,107,346294,0.0-6.0-101.0,"""","""","""","""","""","""","""","""","""","""","""","""","2021-08-09 16:15:48",72.239.172.164,"Mozilla/5.0 (Macintosh; Intel Mac OS X 10_15_7) AppleWebKit/537.36 (KHTML, like Gecko) Chrome/92.0.4515.131 Safari/537.36",Macintosh,Chrome,92.0.4515.131,"OS X",10_15_7,5f461dd6c139dd6b46c7596cbd57cd79
184,1,"""","""","""","""","""",sampler,108,346294,0.0-6.0-102.0,"""","""","""","""","""","""","""","""","""","""","""","""","2021-08-09 16:15:48",72.239.172.164,"Mozilla/5.0 (Macintosh; Intel Mac OS X 10_15_7) AppleWebKit/537.36 (KHTML, like Gecko) Chrome/92.0.4515.131 Safari/537.36",Macintosh,Chrome,92.0.4515.131,"OS X",10_15_7,5f461dd6c139dd6b46c7596cbd57cd79
184,1,"""","""","""","""","""",sampler,109,346294,0.0-6.0-103.0,"""","""","""","""","""","""","""","""","""","""","""","""","2021-08-09 16:15:48",72.239.172.164,"Mozilla/5.0 (Macintosh; Intel Mac OS X 10_15_7) AppleWebKit/537.36 (KHTML, like Gecko) Chrome/92.0.4515.131 Safari/537.36",Macintosh,Chrome,92.0.4515.131,"OS X",10_15_7,5f461dd6c139dd6b46c7596cbd57cd79
184,1,"""","""","""","""","""",sampler,110,346294,0.0-6.0-104.0,"""","""","""","""","""","""","""","""","""","""","""","""","2021-08-09 16:15:48",72.239.172.164,"Mozilla/5.0 (Macintosh; Intel Mac OS X 10_15_7) AppleWebKit/537.36 (KHTML, like Gecko) Chrome/92.0.4515.131 Safari/537.36",Macintosh,Chrome,92.0.4515.131,"OS X",10_15_7,5f461dd6c139dd6b46c7596cbd57cd79
184,1,"""","""","""","""","""",sampler,111,346294,0.0-6.0-105.0,"""","""","""","""","""","""","""","""","""","""","""","""","2021-08-09 16:15:48",72.239.172.164,"Mozilla/5.0 (Macintosh; Intel Mac OS X 10_15_7) AppleWebKit/537.36 (KHTML, like Gecko) Chrome/92.0.4515.131 Safari/537.36",Macintosh,Chrome,92.0.4515.131,"OS X",10_15_7,5f461dd6c139dd6b46c7596cbd57cd79
184,1,"""","""","""","""","""",sampler,112,346294,0.0-6.0-106.0,"""","""","""","""","""","""","""","""","""","""","""","""","2021-08-09 16:15:48",72.239.172.164,"Mozilla/5.0 (Macintosh; Intel Mac OS X 10_15_7) AppleWebKit/537.36 (KHTML, like Gecko) Chrome/92.0.4515.131 Safari/537.36",Macintosh,Chrome,92.0.4515.131,"OS X",10_15_7,5f461dd6c139dd6b46c7596cbd57cd79
184,1,"""","""","""","""","""",sampler,113,346294,0.0-6.0-107.0,"""","""","""","""","""","""","""","""","""","""","""","""","2021-08-09 16:15:48",72.239.172.164,"Mozilla/5.0 (Macintosh; Intel Mac OS X 10_15_7) AppleWebKit/537.36 (KHTML, like Gecko) Chrome/92.0.4515.131 Safari/537.36",Macintosh,Chrome,92.0.4515.131,"OS X",10_15_7,5f461dd6c139dd6b46c7596cbd57cd79
184,1,"""","""","""","""","""",sampler,114,346294,0.0-6.0-108.0,"""","""","""","""","""","""","""","""","""","""","""","""","2021-08-09 16:15:48",72.239.172.164,"Mozilla/5.0 (Macintosh; Intel Mac OS X 10_15_7) AppleWebKit/537.36 (KHTML, like Gecko) Chrome/92.0.4515.131 Safari/537.36",Macintosh,Chrome,92.0.4515.131,"OS X",10_15_7,5f461dd6c139dd6b46c7596cbd57cd79
184,1,"""","""","""","""","""",sampler,115,346295,0.0-6.0-109.0,"""","""","""","""","""","""","""","""","""","""","""","""","2021-08-09 16:15:48",72.239.172.164,"Mozilla/5.0 (Macintosh; Intel Mac OS X 10_15_7) AppleWebKit/537.36 (KHTML, like Gecko) Chrome/92.0.4515.131 Safari/537.36",Macintosh,Chrome,92.0.4515.131,"OS X",10_15_7,5f461dd6c139dd6b46c7596cbd57cd79
184,1,"""","""","""","""","""",sampler,116,346295,0.0-6.0-110.0,"""","""","""","""","""","""","""","""","""","""","""","""","2021-08-09 16:15:48",72.239.172.164,"Mozilla/5.0 (Macintosh; Intel Mac OS X 10_15_7) AppleWebKit/537.36 (KHTML, like Gecko) Chrome/92.0.4515.131 Safari/537.36",Macintosh,Chrome,92.0.4515.131,"OS X",10_15_7,5f461dd6c139dd6b46c7596cbd57cd79
184,1,"""","""","""","""","""",sampler,117,346295,0.0-6.0-111.0,"""","""","""","""","""","""","""","""","""","""","""","""","2021-08-09 16:15:48",72.239.172.164,"Mozilla/5.0 (Macintosh; Intel Mac OS X 10_15_7) AppleWebKit/537.36 (KHTML, like Gecko) Chrome/92.0.4515.131 Safari/537.36",Macintosh,Chrome,92.0.4515.131,"OS X",10_15_7,5f461dd6c139dd6b46c7596cbd57cd79
184,1,"""","""","""","""","""",sampler,118,346295,0.0-6.0-112.0,"""","""","""","""","""","""","""","""","""","""","""","""","2021-08-09 16:15:48",72.239.172.164,"Mozilla/5.0 (Macintosh; Intel Mac OS X 10_15_7) AppleWebKit/537.36 (KHTML, like Gecko) Chrome/92.0.4515.131 Safari/537.36",Macintosh,Chrome,92.0.4515.131,"OS X",10_15_7,5f461dd6c139dd6b46c7596cbd57cd79
184,1,"""","""","""","""","""",sampler,119,346295,0.0-6.0-113.0,"""","""","""","""","""","""","""","""","""","""","""","""","2021-08-09 16:15:48",72.239.172.164,"Mozilla/5.0 (Macintosh; Intel Mac OS X 10_15_7) AppleWebKit/537.36 (KHTML, like Gecko) Chrome/92.0.4515.131 Safari/537.36",Macintosh,Chrome,92.0.4515.131,"OS X",10_15_7,5f461dd6c139dd6b46c7596cbd57cd79
184,1,"""","""","""","""","""",sampler,120,346295,0.0-6.0-114.0,"""","""","""","""","""","""","""","""","""","""","""","""","2021-08-09 16:15:48",72.239.172.164,"Mozilla/5.0 (Macintosh; Intel Mac OS X 10_15_7) AppleWebKit/537.36 (KHTML, like Gecko) Chrome/92.0.4515.131 Safari/537.36",Macintosh,Chrome,92.0.4515.131,"OS X",10_15_7,5f461dd6c139dd6b46c7596cbd57cd79
184,1,"""","""","""","""","""",sampler,121,346295,0.0-6.0-115.0,"""","""","""","""","""","""","""","""","""","""","""","""","2021-08-09 16:15:48",72.239.172.164,"Mozilla/5.0 (Macintosh; Intel Mac OS X 10_15_7) AppleWebKit/537.36 (KHTML, like Gecko) Chrome/92.0.4515.131 Safari/537.36",Macintosh,Chrome,92.0.4515.131,"OS X",10_15_7,5f461dd6c139dd6b46c7596cbd57cd79
184,1,"""","""","""","""","""",sampler,122,346295,0.0-6.0-116.0,"""","""","""","""","""","""","""","""","""","""","""","""","2021-08-09 16:15:48",72.239.172.164,"Mozilla/5.0 (Macintosh; Intel Mac OS X 10_15_7) AppleWebKit/537.36 (KHTML, like Gecko) Chrome/92.0.4515.131 Safari/537.36",Macintosh,Chrome,92.0.4515.131,"OS X",10_15_7,5f461dd6c139dd6b46c7596cbd57cd79
184,1,"""","""","""","""","""",sampler,123,346295,0.0-6.0-117.0,"""","""","""","""","""","""","""","""","""","""","""","""","2021-08-09 16:15:48",72.239.172.164,"Mozilla/5.0 (Macintosh; Intel Mac OS X 10_15_7) AppleWebKit/537.36 (KHTML, like Gecko) Chrome/92.0.4515.131 Safari/537.36",Macintosh,Chrome,92.0.4515.131,"OS X",10_15_7,5f461dd6c139dd6b46c7596cbd57cd79
184,1,"""","""","""","""","""",sampler,124,346295,0.0-6.0-118.0,"""","""","""","""","""","""","""","""","""","""","""","""","2021-08-09 16:15:48",72.239.172.164,"Mozilla/5.0 (Macintosh; Intel Mac OS X 10_15_7) AppleWebKit/537.36 (KHTML, like Gecko) Chrome/92.0.4515.131 Safari/537.36",Macintosh,Chrome,92.0.4515.131,"OS X",10_15_7,5f461dd6c139dd6b46c7596cbd57cd79
184,1,"""","""","""","""","""",sampler,125,346296,0.0-6.0-119.0,"""","""","""","""","""","""","""","""","""","""","""","""","2021-08-09 16:15:48",72.239.172.164,"Mozilla/5.0 (Macintosh; Intel Mac OS X 10_15_7) AppleWebKit/537.36 (KHTML, like Gecko) Chrome/92.0.4515.131 Safari/537.36",Macintosh,Chrome,92.0.4515.131,"OS X",10_15_7,5f461dd6c139dd6b46c7596cbd57cd79
184,1,"""","""","""","""","""",sampler,126,346296,0.0-6.0-120.0,"""","""","""","""","""","""","""","""","""","""","""","""","2021-08-09 16:15:48",72.239.172.164,"Mozilla/5.0 (Macintosh; Intel Mac OS X 10_15_7) AppleWebKit/537.36 (KHTML, like Gecko) Chrome/92.0.4515.131 Safari/537.36",Macintosh,Chrome,92.0.4515.131,"OS X",10_15_7,5f461dd6c139dd6b46c7596cbd57cd79
184,1,"""","""","""","""","""",sampler,127,346296,0.0-6.0-121.0,"""","""","""","""","""","""","""","""","""","""","""","""","2021-08-09 16:15:48",72.239.172.164,"Mozilla/5.0 (Macintosh; Intel Mac OS X 10_15_7) AppleWebKit/537.36 (KHTML, like Gecko) Chrome/92.0.4515.131 Safari/537.36",Macintosh,Chrome,92.0.4515.131,"OS X",10_15_7,5f461dd6c139dd6b46c7596cbd57cd79
184,1,"""","""","""","""","""",sampler,128,346296,0.0-6.0-122.0,"""","""","""","""","""","""","""","""","""","""","""","""","2021-08-09 16:15:48",72.239.172.164,"Mozilla/5.0 (Macintosh; Intel Mac OS X 10_15_7) AppleWebKit/537.36 (KHTML, like Gecko) Chrome/92.0.4515.131 Safari/537.36",Macintosh,Chrome,92.0.4515.131,"OS X",10_15_7,5f461dd6c139dd6b46c7596cbd57cd79
184,1,"""","""","""","""","""",sampler,129,346296,0.0-6.0-123.0,"""","""","""","""","""","""","""","""","""","""","""","""","2021-08-09 16:15:48",72.239.172.164,"Mozilla/5.0 (Macintosh; Intel Mac OS X 10_15_7) AppleWebKit/537.36 (KHTML, like Gecko) Chrome/92.0.4515.131 Safari/537.36",Macintosh,Chrome,92.0.4515.131,"OS X",10_15_7,5f461dd6c139dd6b46c7596cbd57cd79
184,1,"""","""","""","""","""",sampler,130,346296,0.0-6.0-124.0,"""","""","""","""","""","""","""","""","""","""","""","""","2021-08-09 16:15:48",72.239.172.164,"Mozilla/5.0 (Macintosh; Intel Mac OS X 10_15_7) AppleWebKit/537.36 (KHTML, like Gecko) Chrome/92.0.4515.131 Safari/537.36",Macintosh,Chrome,92.0.4515.131,"OS X",10_15_7,5f461dd6c139dd6b46c7596cbd57cd79
184,1,"""","""","""","""","""",sampler,131,346296,0.0-6.0-125.0,"""","""","""","""","""","""","""","""","""","""","""","""","2021-08-09 16:15:48",72.239.172.164,"Mozilla/5.0 (Macintosh; Intel Mac OS X 10_15_7) AppleWebKit/537.36 (KHTML, like Gecko) Chrome/92.0.4515.131 Safari/537.36",Macintosh,Chrome,92.0.4515.131,"OS X",10_15_7,5f461dd6c139dd6b46c7596cbd57cd79
184,1,"""","""","""","""","""",sampler,132,346296,0.0-6.0-126.0,"""","""","""","""","""","""","""","""","""","""","""","""","2021-08-09 16:15:48",72.239.172.164,"Mozilla/5.0 (Macintosh; Intel Mac OS X 10_15_7) AppleWebKit/537.36 (KHTML, like Gecko) Chrome/92.0.4515.131 Safari/537.36",Macintosh,Chrome,92.0.4515.131,"OS X",10_15_7,5f461dd6c139dd6b46c7596cbd57cd79
184,1,"""","""","""","""","""",sampler,133,346296,0.0-6.0-127.0,"""","""","""","""","""","""","""","""","""","""","""","""","2021-08-09 16:15:48",72.239.172.164,"Mozilla/5.0 (Macintosh; Intel Mac OS X 10_15_7) AppleWebKit/537.36 (KHTML, like Gecko) Chrome/92.0.4515.131 Safari/537.36",Macintosh,Chrome,92.0.4515.131,"OS X",10_15_7,5f461dd6c139dd6b46c7596cbd57cd79
184,1,"""","""","""","""","""",sampler,134,346297,0.0-6.0-128.0,"""","""","""","""","""","""","""","""","""","""","""","""","2021-08-09 16:15:48",72.239.172.164,"Mozilla/5.0 (Macintosh; Intel Mac OS X 10_15_7) AppleWebKit/537.36 (KHTML, like Gecko) Chrome/92.0.4515.131 Safari/537.36",Macintosh,Chrome,92.0.4515.131,"OS X",10_15_7,5f461dd6c139dd6b46c7596cbd57cd79
184,1,"""","""","""","""","""",sampler,135,346297,0.0-6.0-129.0,"""","""","""","""","""","""","""","""","""","""","""","""","2021-08-09 16:15:48",72.239.172.164,"Mozilla/5.0 (Macintosh; Intel Mac OS X 10_15_7) AppleWebKit/537.36 (KHTML, like Gecko) Chrome/92.0.4515.131 Safari/537.36",Macintosh,Chrome,92.0.4515.131,"OS X",10_15_7,5f461dd6c139dd6b46c7596cbd57cd79
184,1,"""","""","""","""","""",sampler,136,346297,0.0-6.0-130.0,"""","""","""","""","""","""","""","""","""","""","""","""","2021-08-09 16:15:48",72.239.172.164,"Mozilla/5.0 (Macintosh; Intel Mac OS X 10_15_7) AppleWebKit/537.36 (KHTML, like Gecko) Chrome/92.0.4515.131 Safari/537.36",Macintosh,Chrome,92.0.4515.131,"OS X",10_15_7,5f461dd6c139dd6b46c7596cbd57cd79
184,1,"""","""","""","""","""",sampler,137,346297,0.0-6.0-131.0,"""","""","""","""","""","""","""","""","""","""","""","""","2021-08-09 16:15:48",72.239.172.164,"Mozilla/5.0 (Macintosh; Intel Mac OS X 10_15_7) AppleWebKit/537.36 (KHTML, like Gecko) Chrome/92.0.4515.131 Safari/537.36",Macintosh,Chrome,92.0.4515.131,"OS X",10_15_7,5f461dd6c139dd6b46c7596cbd57cd79
184,1,"""","""","""","""","""",sampler,138,346297,0.0-6.0-132.0,"""","""","""","""","""","""","""","""","""","""","""","""","2021-08-09 16:15:48",72.239.172.164,"Mozilla/5.0 (Macintosh; Intel Mac OS X 10_15_7) AppleWebKit/537.36 (KHTML, like Gecko) Chrome/92.0.4515.131 Safari/537.36",Macintosh,Chrome,92.0.4515.131,"OS X",10_15_7,5f461dd6c139dd6b46c7596cbd57cd79
184,1,"""","""","""","""","""",sampler,139,346297,0.0-6.0-133.0,"""","""","""","""","""","""","""","""","""","""","""","""","2021-08-09 16:15:48",72.239.172.164,"Mozilla/5.0 (Macintosh; Intel Mac OS X 10_15_7) AppleWebKit/537.36 (KHTML, like Gecko) Chrome/92.0.4515.131 Safari/537.36",Macintosh,Chrome,92.0.4515.131,"OS X",10_15_7,5f461dd6c139dd6b46c7596cbd57cd79
184,1,"""","""","""","""","""",sampler,140,346297,0.0-6.0-134.0,"""","""","""","""","""","""","""","""","""","""","""","""","2021-08-09 16:15:48",72.239.172.164,"Mozilla/5.0 (Macintosh; Intel Mac OS X 10_15_7) AppleWebKit/537.36 (KHTML, like Gecko) Chrome/92.0.4515.131 Safari/537.36",Macintosh,Chrome,92.0.4515.131,"OS X",10_15_7,5f461dd6c139dd6b46c7596cbd57cd79
184,1,"""","""","""","""","""",sampler,141,346297,0.0-6.0-135.0,"""","""","""","""","""","""","""","""","""","""","""","""","2021-08-09 16:15:48",72.239.172.164,"Mozilla/5.0 (Macintosh; Intel Mac OS X 10_15_7) AppleWebKit/537.36 (KHTML, like Gecko) Chrome/92.0.4515.131 Safari/537.36",Macintosh,Chrome,92.0.4515.131,"OS X",10_15_7,5f461dd6c139dd6b46c7596cbd57cd79
184,1,"""","""","""","""","""",sampler,142,346297,0.0-6.0-136.0,"""","""","""","""","""","""","""","""","""","""","""","""","2021-08-09 16:15:48",72.239.172.164,"Mozilla/5.0 (Macintosh; Intel Mac OS X 10_15_7) AppleWebKit/537.36 (KHTML, like Gecko) Chrome/92.0.4515.131 Safari/537.36",Macintosh,Chrome,92.0.4515.131,"OS X",10_15_7,5f461dd6c139dd6b46c7596cbd57cd79
184,1,"""","""","""","""","""",sampler,143,346297,0.0-6.0-137.0,"""","""","""","""","""","""","""","""","""","""","""","""","2021-08-09 16:15:48",72.239.172.164,"Mozilla/5.0 (Macintosh; Intel Mac OS X 10_15_7) AppleWebKit/537.36 (KHTML, like Gecko) Chrome/92.0.4515.131 Safari/537.36",Macintosh,Chrome,92.0.4515.131,"OS X",10_15_7,5f461dd6c139dd6b46c7596cbd57cd79
184,1,"""","""","""","""","""",sampler,144,346297,0.0-6.0-138.0,"""","""","""","""","""","""","""","""","""","""","""","""","2021-08-09 16:15:48",72.239.172.164,"Mozilla/5.0 (Macintosh; Intel Mac OS X 10_15_7) AppleWebKit/537.36 (KHTML, like Gecko) Chrome/92.0.4515.131 Safari/537.36",Macintosh,Chrome,92.0.4515.131,"OS X",10_15_7,5f461dd6c139dd6b46c7596cbd57cd79
184,1,"""","""","""","""","""",sampler,145,346297,0.0-6.0-139.0,"""","""","""","""","""","""","""","""","""","""","""","""","2021-08-09 16:15:48",72.239.172.164,"Mozilla/5.0 (Macintosh; Intel Mac OS X 10_15_7) AppleWebKit/537.36 (KHTML, like Gecko) Chrome/92.0.4515.131 Safari/537.36",Macintosh,Chrome,92.0.4515.131,"OS X",10_15_7,5f461dd6c139dd6b46c7596cbd57cd79
184,1,"""","""","""","""","""",sampler,146,346298,0.0-6.0-140.0,"""","""","""","""","""","""","""","""","""","""","""","""","2021-08-09 16:15:48",72.239.172.164,"Mozilla/5.0 (Macintosh; Intel Mac OS X 10_15_7) AppleWebKit/537.36 (KHTML, like Gecko) Chrome/92.0.4515.131 Safari/537.36",Macintosh,Chrome,92.0.4515.131,"OS X",10_15_7,5f461dd6c139dd6b46c7596cbd57cd79
184,1,"""","""","""","""","""",sampler,147,346298,0.0-6.0-141.0,"""","""","""","""","""","""","""","""","""","""","""","""","2021-08-09 16:15:48",72.239.172.164,"Mozilla/5.0 (Macintosh; Intel Mac OS X 10_15_7) AppleWebKit/537.36 (KHTML, like Gecko) Chrome/92.0.4515.131 Safari/537.36",Macintosh,Chrome,92.0.4515.131,"OS X",10_15_7,5f461dd6c139dd6b46c7596cbd57cd79
184,1,"""","""","""","""","""",sampler,148,346298,0.0-6.0-142.0,"""","""","""","""","""","""","""","""","""","""","""","""","2021-08-09 16:15:48",72.239.172.164,"Mozilla/5.0 (Macintosh; Intel Mac OS X 10_15_7) AppleWebKit/537.36 (KHTML, like Gecko) Chrome/92.0.4515.131 Safari/537.36",Macintosh,Chrome,92.0.4515.131,"OS X",10_15_7,5f461dd6c139dd6b46c7596cbd57cd79
184,1,"""","""","""","""","""",sampler,149,346298,0.0-6.0-143.0,"""","""","""","""","""","""","""","""","""","""","""","""","2021-08-09 16:15:48",72.239.172.164,"Mozilla/5.0 (Macintosh; Intel Mac OS X 10_15_7) AppleWebKit/537.36 (KHTML, like Gecko) Chrome/92.0.4515.131 Safari/537.36",Macintosh,Chrome,92.0.4515.131,"OS X",10_15_7,5f461dd6c139dd6b46c7596cbd57cd79
184,1,"""","""","""","""","""",sampler,150,346298,0.0-6.0-144.0,"""","""","""","""","""","""","""","""","""","""","""","""","2021-08-09 16:15:48",72.239.172.164,"Mozilla/5.0 (Macintosh; Intel Mac OS X 10_15_7) AppleWebKit/537.36 (KHTML, like Gecko) Chrome/92.0.4515.131 Safari/537.36",Macintosh,Chrome,92.0.4515.131,"OS X",10_15_7,5f461dd6c139dd6b46c7596cbd57cd79
184,1,"""","""","""","""","""",sampler,151,346298,0.0-6.0-145.0,"""","""","""","""","""","""","""","""","""","""","""","""","2021-08-09 16:15:48",72.239.172.164,"Mozilla/5.0 (Macintosh; Intel Mac OS X 10_15_7) AppleWebKit/537.36 (KHTML, like Gecko) Chrome/92.0.4515.131 Safari/537.36",Macintosh,Chrome,92.0.4515.131,"OS X",10_15_7,5f461dd6c139dd6b46c7596cbd57cd79
184,1,"""","""","""","""","""",sampler,152,346298,0.0-6.0-146.0,"""","""","""","""","""","""","""","""","""","""","""","""","2021-08-09 16:15:48",72.239.172.164,"Mozilla/5.0 (Macintosh; Intel Mac OS X 10_15_7) AppleWebKit/537.36 (KHTML, like Gecko) Chrome/92.0.4515.131 Safari/537.36",Macintosh,Chrome,92.0.4515.131,"OS X",10_15_7,5f461dd6c139dd6b46c7596cbd57cd79
184,1,"""","""","""","""","""",sampler,153,346298,0.0-6.0-147.0,"""","""","""","""","""","""","""","""","""","""","""","""","2021-08-09 16:15:48",72.239.172.164,"Mozilla/5.0 (Macintosh; Intel Mac OS X 10_15_7) AppleWebKit/537.36 (KHTML, like Gecko) Chrome/92.0.4515.131 Safari/537.36",Macintosh,Chrome,92.0.4515.131,"OS X",10_15_7,5f461dd6c139dd6b46c7596cbd57cd79
184,1,"""","""","""","""","""",sampler,154,346298,0.0-6.0-148.0,"""","""","""","""","""","""","""","""","""","""","""","""","2021-08-09 16:15:48",72.239.172.164,"Mozilla/5.0 (Macintosh; Intel Mac OS X 10_15_7) AppleWebKit/537.36 (KHTML, like Gecko) Chrome/92.0.4515.131 Safari/537.36",Macintosh,Chrome,92.0.4515.131,"OS X",10_15_7,5f461dd6c139dd6b46c7596cbd57cd79
184,1,"""","""","""","""","""",sampler,155,346298,0.0-6.0-149.0,"""","""","""","""","""","""","""","""","""","""","""","""","2021-08-09 16:15:48",72.239.172.164,"Mozilla/5.0 (Macintosh; Intel Mac OS X 10_15_7) AppleWebKit/537.36 (KHTML, like Gecko) Chrome/92.0.4515.131 Safari/537.36",Macintosh,Chrome,92.0.4515.131,"OS X",10_15_7,5f461dd6c139dd6b46c7596cbd57cd79
184,1,"""","""","""","""","""",sampler,156,346298,0.0-6.0-150.0,"""","""","""","""","""","""","""","""","""","""","""","""","2021-08-09 16:15:48",72.239.172.164,"Mozilla/5.0 (Macintosh; Intel Mac OS X 10_15_7) AppleWebKit/537.36 (KHTML, like Gecko) Chrome/92.0.4515.131 Safari/537.36",Macintosh,Chrome,92.0.4515.131,"OS X",10_15_7,5f461dd6c139dd6b46c7596cbd57cd79
184,1,"""","""","""","""","""",sampler,157,346298,0.0-6.0-151.0,"""","""","""","""","""","""","""","""","""","""","""","""","2021-08-09 16:15:48",72.239.172.164,"Mozilla/5.0 (Macintosh; Intel Mac OS X 10_15_7) AppleWebKit/537.36 (KHTML, like Gecko) Chrome/92.0.4515.131 Safari/537.36",Macintosh,Chrome,92.0.4515.131,"OS X",10_15_7,5f461dd6c139dd6b46c7596cbd57cd79
184,1,"""","""","""","""","""",sampler,158,346299,0.0-6.0-152.0,"""","""","""","""","""","""","""","""","""","""","""","""","2021-08-09 16:15:48",72.239.172.164,"Mozilla/5.0 (Macintosh; Intel Mac OS X 10_15_7) AppleWebKit/537.36 (KHTML, like Gecko) Chrome/92.0.4515.131 Safari/537.36",Macintosh,Chrome,92.0.4515.131,"OS X",10_15_7,5f461dd6c139dd6b46c7596cbd57cd79
184,1,"""","""","""","""","""",sampler,159,346299,0.0-6.0-153.0,"""","""","""","""","""","""","""","""","""","""","""","""","2021-08-09 16:15:48",72.239.172.164,"Mozilla/5.0 (Macintosh; Intel Mac OS X 10_15_7) AppleWebKit/537.36 (KHTML, like Gecko) Chrome/92.0.4515.131 Safari/537.36",Macintosh,Chrome,92.0.4515.131,"OS X",10_15_7,5f461dd6c139dd6b46c7596cbd57cd79
184,1,"""","""","""","""","""",sampler,160,346299,0.0-6.0-154.0,"""","""","""","""","""","""","""","""","""","""","""","""","2021-08-09 16:15:48",72.239.172.164,"Mozilla/5.0 (Macintosh; Intel Mac OS X 10_15_7) AppleWebKit/537.36 (KHTML, like Gecko) Chrome/92.0.4515.131 Safari/537.36",Macintosh,Chrome,92.0.4515.131,"OS X",10_15_7,5f461dd6c139dd6b46c7596cbd57cd79
184,1,"""","""","""","""","""",sampler,161,346299,0.0-6.0-155.0,"""","""","""","""","""","""","""","""","""","""","""","""","2021-08-09 16:15:48",72.239.172.164,"Mozilla/5.0 (Macintosh; Intel Mac OS X 10_15_7) AppleWebKit/537.36 (KHTML, like Gecko) Chrome/92.0.4515.131 Safari/537.36",Macintosh,Chrome,92.0.4515.131,"OS X",10_15_7,5f461dd6c139dd6b46c7596cbd57cd79
184,1,"""","""","""","""","""",sampler,162,346299,0.0-6.0-156.0,"""","""","""","""","""","""","""","""","""","""","""","""","2021-08-09 16:15:48",72.239.172.164,"Mozilla/5.0 (Macintosh; Intel Mac OS X 10_15_7) AppleWebKit/537.36 (KHTML, like Gecko) Chrome/92.0.4515.131 Safari/537.36",Macintosh,Chrome,92.0.4515.131,"OS X",10_15_7,5f461dd6c139dd6b46c7596cbd57cd79
184,1,"""","""","""","""","""",sampler,163,346299,0.0-6.0-157.0,"""","""","""","""","""","""","""","""","""","""","""","""","2021-08-09 16:15:48",72.239.172.164,"Mozilla/5.0 (Macintosh; Intel Mac OS X 10_15_7) AppleWebKit/537.36 (KHTML, like Gecko) Chrome/92.0.4515.131 Safari/537.36",Macintosh,Chrome,92.0.4515.131,"OS X",10_15_7,5f461dd6c139dd6b46c7596cbd57cd79
184,1,"""","""","""","""","""",sampler,164,346299,0.0-6.0-158.0,"""","""","""","""","""","""","""","""","""","""","""","""","2021-08-09 16:15:48",72.239.172.164,"Mozilla/5.0 (Macintosh; Intel Mac OS X 10_15_7) AppleWebKit/537.36 (KHTML, like Gecko) Chrome/92.0.4515.131 Safari/537.36",Macintosh,Chrome,92.0.4515.131,"OS X",10_15_7,5f461dd6c139dd6b46c7596cbd57cd79
184,1,"""","""","""","""","""",sampler,165,346299,0.0-6.0-159.0,"""","""","""","""","""","""","""","""","""","""","""","""","2021-08-09 16:15:48",72.239.172.164,"Mozilla/5.0 (Macintosh; Intel Mac OS X 10_15_7) AppleWebKit/537.36 (KHTML, like Gecko) Chrome/92.0.4515.131 Safari/537.36",Macintosh,Chrome,92.0.4515.131,"OS X",10_15_7,5f461dd6c139dd6b46c7596cbd57cd79
184,1,"""","""","""","""","""",sampler,166,346299,0.0-6.0-160.0,"""","""","""","""","""","""","""","""","""","""","""","""","2021-08-09 16:15:48",72.239.172.164,"Mozilla/5.0 (Macintosh; Intel Mac OS X 10_15_7) AppleWebKit/537.36 (KHTML, like Gecko) Chrome/92.0.4515.131 Safari/537.36",Macintosh,Chrome,92.0.4515.131,"OS X",10_15_7,5f461dd6c139dd6b46c7596cbd57cd79
184,1,"""","""","""","""","""",sampler,167,346299,0.0-6.0-161.0,"""","""","""","""","""","""","""","""","""","""","""","""","2021-08-09 16:15:48",72.239.172.164,"Mozilla/5.0 (Macintosh; Intel Mac OS X 10_15_7) AppleWebKit/537.36 (KHTML, like Gecko) Chrome/92.0.4515.131 Safari/537.36",Macintosh,Chrome,92.0.4515.131,"OS X",10_15_7,5f461dd6c139dd6b46c7596cbd57cd79
184,1,"""","""","""","""","""",sampler,168,346299,0.0-6.0-162.0,"""","""","""","""","""","""","""","""","""","""","""","""","2021-08-09 16:15:48",72.239.172.164,"Mozilla/5.0 (Macintosh; Intel Mac OS X 10_15_7) AppleWebKit/537.36 (KHTML, like Gecko) Chrome/92.0.4515.131 Safari/537.36",Macintosh,Chrome,92.0.4515.131,"OS X",10_15_7,5f461dd6c139dd6b46c7596cbd57cd79
184,1,"""","""","""","""","""",sampler,169,346300,0.0-6.0-163.0,"""","""","""","""","""","""","""","""","""","""","""","""","2021-08-09 16:15:48",72.239.172.164,"Mozilla/5.0 (Macintosh; Intel Mac OS X 10_15_7) AppleWebKit/537.36 (KHTML, like Gecko) Chrome/92.0.4515.131 Safari/537.36",Macintosh,Chrome,92.0.4515.131,"OS X",10_15_7,5f461dd6c139dd6b46c7596cbd57cd79
184,1,"""","""","""","""","""",sampler,170,346300,0.0-6.0-164.0,"""","""","""","""","""","""","""","""","""","""","""","""","2021-08-09 16:15:48",72.239.172.164,"Mozilla/5.0 (Macintosh; Intel Mac OS X 10_15_7) AppleWebKit/537.36 (KHTML, like Gecko) Chrome/92.0.4515.131 Safari/537.36",Macintosh,Chrome,92.0.4515.131,"OS X",10_15_7,5f461dd6c139dd6b46c7596cbd57cd79
184,1,"""","""","""","""","""",sampler,171,346300,0.0-6.0-165.0,"""","""","""","""","""","""","""","""","""","""","""","""","2021-08-09 16:15:48",72.239.172.164,"Mozilla/5.0 (Macintosh; Intel Mac OS X 10_15_7) AppleWebKit/537.36 (KHTML, like Gecko) Chrome/92.0.4515.131 Safari/537.36",Macintosh,Chrome,92.0.4515.131,"OS X",10_15_7,5f461dd6c139dd6b46c7596cbd57cd79
184,1,"""","""","""","""","""",sampler,172,346300,0.0-6.0-166.0,"""","""","""","""","""","""","""","""","""","""","""","""","2021-08-09 16:15:48",72.239.172.164,"Mozilla/5.0 (Macintosh; Intel Mac OS X 10_15_7) AppleWebKit/537.36 (KHTML, like Gecko) Chrome/92.0.4515.131 Safari/537.36",Macintosh,Chrome,92.0.4515.131,"OS X",10_15_7,5f461dd6c139dd6b46c7596cbd57cd79
184,1,"""","""","""","""","""",sampler,173,346300,0.0-6.0-167.0,"""","""","""","""","""","""","""","""","""","""","""","""","2021-08-09 16:15:48",72.239.172.164,"Mozilla/5.0 (Macintosh; Intel Mac OS X 10_15_7) AppleWebKit/537.36 (KHTML, like Gecko) Chrome/92.0.4515.131 Safari/537.36",Macintosh,Chrome,92.0.4515.131,"OS X",10_15_7,5f461dd6c139dd6b46c7596cbd57cd79
184,1,"""","""","""","""","""",sampler,174,346300,0.0-6.0-168.0,"""","""","""","""","""","""","""","""","""","""","""","""","2021-08-09 16:15:48",72.239.172.164,"Mozilla/5.0 (Macintosh; Intel Mac OS X 10_15_7) AppleWebKit/537.36 (KHTML, like Gecko) Chrome/92.0.4515.131 Safari/537.36",Macintosh,Chrome,92.0.4515.131,"OS X",10_15_7,5f461dd6c139dd6b46c7596cbd57cd79
184,1,"""","""","""","""","""",sampler,175,346300,0.0-6.0-169.0,"""","""","""","""","""","""","""","""","""","""","""","""","2021-08-09 16:15:48",72.239.172.164,"Mozilla/5.0 (Macintosh; Intel Mac OS X 10_15_7) AppleWebKit/537.36 (KHTML, like Gecko) Chrome/92.0.4515.131 Safari/537.36",Macintosh,Chrome,92.0.4515.131,"OS X",10_15_7,5f461dd6c139dd6b46c7596cbd57cd79
184,1,"""","""","""","""","""",sampler,176,346300,0.0-6.0-170.0,"""","""","""","""","""","""","""","""","""","""","""","""","2021-08-09 16:15:48",72.239.172.164,"Mozilla/5.0 (Macintosh; Intel Mac OS X 10_15_7) AppleWebKit/537.36 (KHTML, like Gecko) Chrome/92.0.4515.131 Safari/537.36",Macintosh,Chrome,92.0.4515.131,"OS X",10_15_7,5f461dd6c139dd6b46c7596cbd57cd79
184,1,"""","""","""","""","""",sampler,177,346300,0.0-6.0-171.0,"""","""","""","""","""","""","""","""","""","""","""","""","2021-08-09 16:15:48",72.239.172.164,"Mozilla/5.0 (Macintosh; Intel Mac OS X 10_15_7) AppleWebKit/537.36 (KHTML, like Gecko) Chrome/92.0.4515.131 Safari/537.36",Macintosh,Chrome,92.0.4515.131,"OS X",10_15_7,5f461dd6c139dd6b46c7596cbd57cd79
184,1,"""","""","""","""","""",sampler,178,346300,0.0-6.0-172.0,"""","""","""","""","""","""","""","""","""","""","""","""","2021-08-09 16:15:48",72.239.172.164,"Mozilla/5.0 (Macintosh; Intel Mac OS X 10_15_7) AppleWebKit/537.36 (KHTML, like Gecko) Chrome/92.0.4515.131 Safari/537.36",Macintosh,Chrome,92.0.4515.131,"OS X",10_15_7,5f461dd6c139dd6b46c7596cbd57cd79
184,1,"""","""","""","""","""",sampler,179,346300,0.0-6.0-173.0,"""","""","""","""","""","""","""","""","""","""","""","""","2021-08-09 16:15:48",72.239.172.164,"Mozilla/5.0 (Macintosh; Intel Mac OS X 10_15_7) AppleWebKit/537.36 (KHTML, like Gecko) Chrome/92.0.4515.131 Safari/537.36",Macintosh,Chrome,92.0.4515.131,"OS X",10_15_7,5f461dd6c139dd6b46c7596cbd57cd79
184,1,"""","""","""","""","""",sampler,180,346301,0.0-6.0-174.0,"""","""","""","""","""","""","""","""","""","""","""","""","2021-08-09 16:15:48",72.239.172.164,"Mozilla/5.0 (Macintosh; Intel Mac OS X 10_15_7) AppleWebKit/537.36 (KHTML, like Gecko) Chrome/92.0.4515.131 Safari/537.36",Macintosh,Chrome,92.0.4515.131,"OS X",10_15_7,5f461dd6c139dd6b46c7596cbd57cd79
184,1,"""","""","""","""","""",sampler,181,346301,0.0-6.0-175.0,"""","""","""","""","""","""","""","""","""","""","""","""","2021-08-09 16:15:48",72.239.172.164,"Mozilla/5.0 (Macintosh; Intel Mac OS X 10_15_7) AppleWebKit/537.36 (KHTML, like Gecko) Chrome/92.0.4515.131 Safari/537.36",Macintosh,Chrome,92.0.4515.131,"OS X",10_15_7,5f461dd6c139dd6b46c7596cbd57cd79
184,1,"""","""","""","""","""",sampler,182,346301,0.0-6.0-176.0,"""","""","""","""","""","""","""","""","""","""","""","""","2021-08-09 16:15:48",72.239.172.164,"Mozilla/5.0 (Macintosh; Intel Mac OS X 10_15_7) AppleWebKit/537.36 (KHTML, like Gecko) Chrome/92.0.4515.131 Safari/537.36",Macintosh,Chrome,92.0.4515.131,"OS X",10_15_7,5f461dd6c139dd6b46c7596cbd57cd79
184,1,"""","""","""","""","""",sampler,183,346301,0.0-6.0-177.0,"""","""","""","""","""","""","""","""","""","""","""","""","2021-08-09 16:15:48",72.239.172.164,"Mozilla/5.0 (Macintosh; Intel Mac OS X 10_15_7) AppleWebKit/537.36 (KHTML, like Gecko) Chrome/92.0.4515.131 Safari/537.36",Macintosh,Chrome,92.0.4515.131,"OS X",10_15_7,5f461dd6c139dd6b46c7596cbd57cd79
184,1,"""","""","""","""","""",sampler,184,346301,0.0-6.0-178.0,"""","""","""","""","""","""","""","""","""","""","""","""","2021-08-09 16:15:48",72.239.172.164,"Mozilla/5.0 (Macintosh; Intel Mac OS X 10_15_7) AppleWebKit/537.36 (KHTML, like Gecko) Chrome/92.0.4515.131 Safari/537.36",Macintosh,Chrome,92.0.4515.131,"OS X",10_15_7,5f461dd6c139dd6b46c7596cbd57cd79
184,1,"""","""","""","""","""",sampler,185,346301,0.0-6.0-179.0,"""","""","""","""","""","""","""","""","""","""","""","""","2021-08-09 16:15:48",72.239.172.164,"Mozilla/5.0 (Macintosh; Intel Mac OS X 10_15_7) AppleWebKit/537.36 (KHTML, like Gecko) Chrome/92.0.4515.131 Safari/537.36",Macintosh,Chrome,92.0.4515.131,"OS X",10_15_7,5f461dd6c139dd6b46c7596cbd57cd79
184,1,"""","""","""","""","""",sampler,186,346301,0.0-6.0-180.0,"""","""","""","""","""","""","""","""","""","""","""","""","2021-08-09 16:15:48",72.239.172.164,"Mozilla/5.0 (Macintosh; Intel Mac OS X 10_15_7) AppleWebKit/537.36 (KHTML, like Gecko) Chrome/92.0.4515.131 Safari/537.36",Macintosh,Chrome,92.0.4515.131,"OS X",10_15_7,5f461dd6c139dd6b46c7596cbd57cd79
184,1,"""","""","""","""","""",sampler,187,346301,0.0-6.0-181.0,"""","""","""","""","""","""","""","""","""","""","""","""","2021-08-09 16:15:48",72.239.172.164,"Mozilla/5.0 (Macintosh; Intel Mac OS X 10_15_7) AppleWebKit/537.36 (KHTML, like Gecko) Chrome/92.0.4515.131 Safari/537.36",Macintosh,Chrome,92.0.4515.131,"OS X",10_15_7,5f461dd6c139dd6b46c7596cbd57cd79
184,1,"""","""","""","""","""",sampler,188,346301,0.0-6.0-182.0,"""","""","""","""","""","""","""","""","""","""","""","""","2021-08-09 16:15:48",72.239.172.164,"Mozilla/5.0 (Macintosh; Intel Mac OS X 10_15_7) AppleWebKit/537.36 (KHTML, like Gecko) Chrome/92.0.4515.131 Safari/537.36",Macintosh,Chrome,92.0.4515.131,"OS X",10_15_7,5f461dd6c139dd6b46c7596cbd57cd79
184,1,"""","""","""","""","""",sampler,189,346301,0.0-6.0-183.0,"""","""","""","""","""","""","""","""","""","""","""","""","2021-08-09 16:15:48",72.239.172.164,"Mozilla/5.0 (Macintosh; Intel Mac OS X 10_15_7) AppleWebKit/537.36 (KHTML, like Gecko) Chrome/92.0.4515.131 Safari/537.36",Macintosh,Chrome,92.0.4515.131,"OS X",10_15_7,5f461dd6c139dd6b46c7596cbd57cd79
184,1,"""","""","""","""","""",sampler,190,346302,0.0-6.0-184.0,"""","""","""","""","""","""","""","""","""","""","""","""","2021-08-09 16:15:48",72.239.172.164,"Mozilla/5.0 (Macintosh; Intel Mac OS X 10_15_7) AppleWebKit/537.36 (KHTML, like Gecko) Chrome/92.0.4515.131 Safari/537.36",Macintosh,Chrome,92.0.4515.131,"OS X",10_15_7,5f461dd6c139dd6b46c7596cbd57cd79
184,1,"""","""","""","""","""",sampler,191,346302,0.0-6.0-185.0,"""","""","""","""","""","""","""","""","""","""","""","""","2021-08-09 16:15:48",72.239.172.164,"Mozilla/5.0 (Macintosh; Intel Mac OS X 10_15_7) AppleWebKit/537.36 (KHTML, like Gecko) Chrome/92.0.4515.131 Safari/537.36",Macintosh,Chrome,92.0.4515.131,"OS X",10_15_7,5f461dd6c139dd6b46c7596cbd57cd79
184,1,"""","""","""","""","""",sampler,192,346302,0.0-6.0-186.0,"""","""","""","""","""","""","""","""","""","""","""","""","2021-08-09 16:15:48",72.239.172.164,"Mozilla/5.0 (Macintosh; Intel Mac OS X 10_15_7) AppleWebKit/537.36 (KHTML, like Gecko) Chrome/92.0.4515.131 Safari/537.36",Macintosh,Chrome,92.0.4515.131,"OS X",10_15_7,5f461dd6c139dd6b46c7596cbd57cd79
184,1,"""","""","""","""","""",sampler,193,346302,0.0-6.0-187.0,"""","""","""","""","""","""","""","""","""","""","""","""","2021-08-09 16:15:48",72.239.172.164,"Mozilla/5.0 (Macintosh; Intel Mac OS X 10_15_7) AppleWebKit/537.36 (KHTML, like Gecko) Chrome/92.0.4515.131 Safari/537.36",Macintosh,Chrome,92.0.4515.131,"OS X",10_15_7,5f461dd6c139dd6b46c7596cbd57cd79
184,1,"""","""","""","""","""",sampler,194,346302,0.0-6.0-188.0,"""","""","""","""","""","""","""","""","""","""","""","""","2021-08-09 16:15:48",72.239.172.164,"Mozilla/5.0 (Macintosh; Intel Mac OS X 10_15_7) AppleWebKit/537.36 (KHTML, like Gecko) Chrome/92.0.4515.131 Safari/537.36",Macintosh,Chrome,92.0.4515.131,"OS X",10_15_7,5f461dd6c139dd6b46c7596cbd57cd79
184,1,"""","""","""","""","""",sampler,195,346303,0.0-6.0-189.0,"""","""","""","""","""","""","""","""","""","""","""","""","2021-08-09 16:15:48",72.239.172.164,"Mozilla/5.0 (Macintosh; Intel Mac OS X 10_15_7) AppleWebKit/537.36 (KHTML, like Gecko) Chrome/92.0.4515.131 Safari/537.36",Macintosh,Chrome,92.0.4515.131,"OS X",10_15_7,5f461dd6c139dd6b46c7596cbd57cd79
184,1,"""","""","""","""","""",sampler,196,346303,0.0-6.0-190.0,"""","""","""","""","""","""","""","""","""","""","""","""","2021-08-09 16:15:48",72.239.172.164,"Mozilla/5.0 (Macintosh; Intel Mac OS X 10_15_7) AppleWebKit/537.36 (KHTML, like Gecko) Chrome/92.0.4515.131 Safari/537.36",Macintosh,Chrome,92.0.4515.131,"OS X",10_15_7,5f461dd6c139dd6b46c7596cbd57cd79
184,1,"""","""","""","""","""",sampler,197,346303,0.0-6.0-191.0,"""","""","""","""","""","""","""","""","""","""","""","""","2021-08-09 16:15:48",72.239.172.164,"Mozilla/5.0 (Macintosh; Intel Mac OS X 10_15_7) AppleWebKit/537.36 (KHTML, like Gecko) Chrome/92.0.4515.131 Safari/537.36",Macintosh,Chrome,92.0.4515.131,"OS X",10_15_7,5f461dd6c139dd6b46c7596cbd57cd79
184,1,"""","""","""","""","""",sampler,198,346303,0.0-6.0-192.0,"""","""","""","""","""","""","""","""","""","""","""","""","2021-08-09 16:15:48",72.239.172.164,"Mozilla/5.0 (Macintosh; Intel Mac OS X 10_15_7) AppleWebKit/537.36 (KHTML, like Gecko) Chrome/92.0.4515.131 Safari/537.36",Macintosh,Chrome,92.0.4515.131,"OS X",10_15_7,5f461dd6c139dd6b46c7596cbd57cd79
184,1,"""","""","""","""","""",sampler,199,346303,0.0-6.0-193.0,"""","""","""","""","""","""","""","""","""","""","""","""","2021-08-09 16:15:48",72.239.172.164,"Mozilla/5.0 (Macintosh; Intel Mac OS X 10_15_7) AppleWebKit/537.36 (KHTML, like Gecko) Chrome/92.0.4515.131 Safari/537.36",Macintosh,Chrome,92.0.4515.131,"OS X",10_15_7,5f461dd6c139dd6b46c7596cbd57cd79
184,1,"""","""","""","""","""",sampler,200,346303,0.0-6.0-194.0,"""","""","""","""","""","""","""","""","""","""","""","""","2021-08-09 16:15:48",72.239.172.164,"Mozilla/5.0 (Macintosh; Intel Mac OS X 10_15_7) AppleWebKit/537.36 (KHTML, like Gecko) Chrome/92.0.4515.131 Safari/537.36",Macintosh,Chrome,92.0.4515.131,"OS X",10_15_7,5f461dd6c139dd6b46c7596cbd57cd79
184,1,"""","""","""","""","""",sampler,201,346303,0.0-6.0-195.0,"""","""","""","""","""","""","""","""","""","""","""","""","2021-08-09 16:15:48",72.239.172.164,"Mozilla/5.0 (Macintosh; Intel Mac OS X 10_15_7) AppleWebKit/537.36 (KHTML, like Gecko) Chrome/92.0.4515.131 Safari/537.36",Macintosh,Chrome,92.0.4515.131,"OS X",10_15_7,5f461dd6c139dd6b46c7596cbd57cd79
184,1,"""","""","""","""","""",sampler,202,346303,0.0-6.0-196.0,"""","""","""","""","""","""","""","""","""","""","""","""","2021-08-09 16:15:48",72.239.172.164,"Mozilla/5.0 (Macintosh; Intel Mac OS X 10_15_7) AppleWebKit/537.36 (KHTML, like Gecko) Chrome/92.0.4515.131 Safari/537.36",Macintosh,Chrome,92.0.4515.131,"OS X",10_15_7,5f461dd6c139dd6b46c7596cbd57cd79
184,1,"""","""","""","""","""",sampler,203,346303,0.0-6.0-197.0,"""","""","""","""","""","""","""","""","""","""","""","""","2021-08-09 16:15:48",72.239.172.164,"Mozilla/5.0 (Macintosh; Intel Mac OS X 10_15_7) AppleWebKit/537.36 (KHTML, like Gecko) Chrome/92.0.4515.131 Safari/537.36",Macintosh,Chrome,92.0.4515.131,"OS X",10_15_7,5f461dd6c139dd6b46c7596cbd57cd79
184,1,"""","""","""","""","""",sampler,204,346303,0.0-6.0-198.0,"""","""","""","""","""","""","""","""","""","""","""","""","2021-08-09 16:15:48",72.239.172.164,"Mozilla/5.0 (Macintosh; Intel Mac OS X 10_15_7) AppleWebKit/537.36 (KHTML, like Gecko) Chrome/92.0.4515.131 Safari/537.36",Macintosh,Chrome,92.0.4515.131,"OS X",10_15_7,5f461dd6c139dd6b46c7596cbd57cd79
184,1,"""","""","""","""","""",sampler,205,346303,0.0-6.0-199.0,"""","""","""","""","""","""","""","""","""","""","""","""","2021-08-09 16:15:48",72.239.172.164,"Mozilla/5.0 (Macintosh; Intel Mac OS X 10_15_7) AppleWebKit/537.36 (KHTML, like Gecko) Chrome/92.0.4515.131 Safari/537.36",Macintosh,Chrome,92.0.4515.131,"OS X",10_15_7,5f461dd6c139dd6b46c7596cbd57cd79
184,1,"""","""","""","""","""",sampler,206,346304,0.0-6.0-200.0,"""","""","""","""","""","""","""","""","""","""","""","""","2021-08-09 16:15:48",72.239.172.164,"Mozilla/5.0 (Macintosh; Intel Mac OS X 10_15_7) AppleWebKit/537.36 (KHTML, like Gecko) Chrome/92.0.4515.131 Safari/537.36",Macintosh,Chrome,92.0.4515.131,"OS X",10_15_7,5f461dd6c139dd6b46c7596cbd57cd79
184,1,"""","""","""","""","""",sampler,207,346304,0.0-6.0-201.0,"""","""","""","""","""","""","""","""","""","""","""","""","2021-08-09 16:15:48",72.239.172.164,"Mozilla/5.0 (Macintosh; Intel Mac OS X 10_15_7) AppleWebKit/537.36 (KHTML, like Gecko) Chrome/92.0.4515.131 Safari/537.36",Macintosh,Chrome,92.0.4515.131,"OS X",10_15_7,5f461dd6c139dd6b46c7596cbd57cd79
184,1,"""","""","""","""","""",sampler,208,346304,0.0-6.0-202.0,"""","""","""","""","""","""","""","""","""","""","""","""","2021-08-09 16:15:48",72.239.172.164,"Mozilla/5.0 (Macintosh; Intel Mac OS X 10_15_7) AppleWebKit/537.36 (KHTML, like Gecko) Chrome/92.0.4515.131 Safari/537.36",Macintosh,Chrome,92.0.4515.131,"OS X",10_15_7,5f461dd6c139dd6b46c7596cbd57cd79
184,1,"""","""","""","""","""",sampler,209,346304,0.0-6.0-203.0,"""","""","""","""","""","""","""","""","""","""","""","""","2021-08-09 16:15:48",72.239.172.164,"Mozilla/5.0 (Macintosh; Intel Mac OS X 10_15_7) AppleWebKit/537.36 (KHTML, like Gecko) Chrome/92.0.4515.131 Safari/537.36",Macintosh,Chrome,92.0.4515.131,"OS X",10_15_7,5f461dd6c139dd6b46c7596cbd57cd79
184,1,"""","""","""","""","""",sampler,210,346304,0.0-6.0-204.0,"""","""","""","""","""","""","""","""","""","""","""","""","2021-08-09 16:15:48",72.239.172.164,"Mozilla/5.0 (Macintosh; Intel Mac OS X 10_15_7) AppleWebKit/537.36 (KHTML, like Gecko) Chrome/92.0.4515.131 Safari/537.36",Macintosh,Chrome,92.0.4515.131,"OS X",10_15_7,5f461dd6c139dd6b46c7596cbd57cd79
184,1,"""","""","""","""","""",sampler,211,346304,0.0-6.0-205.0,"""","""","""","""","""","""","""","""","""","""","""","""","2021-08-09 16:15:48",72.239.172.164,"Mozilla/5.0 (Macintosh; Intel Mac OS X 10_15_7) AppleWebKit/537.36 (KHTML, like Gecko) Chrome/92.0.4515.131 Safari/537.36",Macintosh,Chrome,92.0.4515.131,"OS X",10_15_7,5f461dd6c139dd6b46c7596cbd57cd79
184,1,"""","""","""","""","""",sampler,212,346304,0.0-6.0-206.0,"""","""","""","""","""","""","""","""","""","""","""","""","2021-08-09 16:15:48",72.239.172.164,"Mozilla/5.0 (Macintosh; Intel Mac OS X 10_15_7) AppleWebKit/537.36 (KHTML, like Gecko) Chrome/92.0.4515.131 Safari/537.36",Macintosh,Chrome,92.0.4515.131,"OS X",10_15_7,5f461dd6c139dd6b46c7596cbd57cd79
184,1,"""","""","""","""","""",sampler,213,346304,0.0-6.0-207.0,"""","""","""","""","""","""","""","""","""","""","""","""","2021-08-09 16:15:48",72.239.172.164,"Mozilla/5.0 (Macintosh; Intel Mac OS X 10_15_7) AppleWebKit/537.36 (KHTML, like Gecko) Chrome/92.0.4515.131 Safari/537.36",Macintosh,Chrome,92.0.4515.131,"OS X",10_15_7,5f461dd6c139dd6b46c7596cbd57cd79
184,1,"""","""","""","""","""",sampler,214,346304,0.0-6.0-208.0,"""","""","""","""","""","""","""","""","""","""","""","""","2021-08-09 16:15:48",72.239.172.164,"Mozilla/5.0 (Macintosh; Intel Mac OS X 10_15_7) AppleWebKit/537.36 (KHTML, like Gecko) Chrome/92.0.4515.131 Safari/537.36",Macintosh,Chrome,92.0.4515.131,"OS X",10_15_7,5f461dd6c139dd6b46c7596cbd57cd79
184,1,"""","""","""","""","""",sampler,215,346304,0.0-6.0-209.0,"""","""","""","""","""","""","""","""","""","""","""","""","2021-08-09 16:15:48",72.239.172.164,"Mozilla/5.0 (Macintosh; Intel Mac OS X 10_15_7) AppleWebKit/537.36 (KHTML, like Gecko) Chrome/92.0.4515.131 Safari/537.36",Macintosh,Chrome,92.0.4515.131,"OS X",10_15_7,5f461dd6c139dd6b46c7596cbd57cd79
184,1,"""","""","""","""","""",sampler,216,346304,0.0-6.0-210.0,"""","""","""","""","""","""","""","""","""","""","""","""","2021-08-09 16:15:48",72.239.172.164,"Mozilla/5.0 (Macintosh; Intel Mac OS X 10_15_7) AppleWebKit/537.36 (KHTML, like Gecko) Chrome/92.0.4515.131 Safari/537.36",Macintosh,Chrome,92.0.4515.131,"OS X",10_15_7,5f461dd6c139dd6b46c7596cbd57cd79
184,1,"""","""","""","""","""",sampler,217,346304,0.0-6.0-211.0,"""","""","""","""","""","""","""","""","""","""","""","""","2021-08-09 16:15:48",72.239.172.164,"Mozilla/5.0 (Macintosh; Intel Mac OS X 10_15_7) AppleWebKit/537.36 (KHTML, like Gecko) Chrome/92.0.4515.131 Safari/537.36",Macintosh,Chrome,92.0.4515.131,"OS X",10_15_7,5f461dd6c139dd6b46c7596cbd57cd79
184,1,"""","""","""","""","""",sampler,218,346305,0.0-6.0-212.0,"""","""","""","""","""","""","""","""","""","""","""","""","2021-08-09 16:15:48",72.239.172.164,"Mozilla/5.0 (Macintosh; Intel Mac OS X 10_15_7) AppleWebKit/537.36 (KHTML, like Gecko) Chrome/92.0.4515.131 Safari/537.36",Macintosh,Chrome,92.0.4515.131,"OS X",10_15_7,5f461dd6c139dd6b46c7596cbd57cd79
184,1,"""","""","""","""","""",sampler,219,346305,0.0-6.0-213.0,"""","""","""","""","""","""","""","""","""","""","""","""","2021-08-09 16:15:48",72.239.172.164,"Mozilla/5.0 (Macintosh; Intel Mac OS X 10_15_7) AppleWebKit/537.36 (KHTML, like Gecko) Chrome/92.0.4515.131 Safari/537.36",Macintosh,Chrome,92.0.4515.131,"OS X",10_15_7,5f461dd6c139dd6b46c7596cbd57cd79
184,1,"""","""","""","""","""",sampler,220,346305,0.0-6.0-214.0,"""","""","""","""","""","""","""","""","""","""","""","""","2021-08-09 16:15:48",72.239.172.164,"Mozilla/5.0 (Macintosh; Intel Mac OS X 10_15_7) AppleWebKit/537.36 (KHTML, like Gecko) Chrome/92.0.4515.131 Safari/537.36",Macintosh,Chrome,92.0.4515.131,"OS X",10_15_7,5f461dd6c139dd6b46c7596cbd57cd79
184,1,"""","""","""","""","""",sampler,221,346305,0.0-6.0-215.0,"""","""","""","""","""","""","""","""","""","""","""","""","2021-08-09 16:15:48",72.239.172.164,"Mozilla/5.0 (Macintosh; Intel Mac OS X 10_15_7) AppleWebKit/537.36 (KHTML, like Gecko) Chrome/92.0.4515.131 Safari/537.36",Macintosh,Chrome,92.0.4515.131,"OS X",10_15_7,5f461dd6c139dd6b46c7596cbd57cd79
184,1,"""","""","""","""","""",sampler,222,346305,0.0-6.0-216.0,"""","""","""","""","""","""","""","""","""","""","""","""","2021-08-09 16:15:48",72.239.172.164,"Mozilla/5.0 (Macintosh; Intel Mac OS X 10_15_7) AppleWebKit/537.36 (KHTML, like Gecko) Chrome/92.0.4515.131 Safari/537.36",Macintosh,Chrome,92.0.4515.131,"OS X",10_15_7,5f461dd6c139dd6b46c7596cbd57cd79
184,1,"""","""","""","""","""",sampler,223,346305,0.0-6.0-217.0,"""","""","""","""","""","""","""","""","""","""","""","""","2021-08-09 16:15:48",72.239.172.164,"Mozilla/5.0 (Macintosh; Intel Mac OS X 10_15_7) AppleWebKit/537.36 (KHTML, like Gecko) Chrome/92.0.4515.131 Safari/537.36",Macintosh,Chrome,92.0.4515.131,"OS X",10_15_7,5f461dd6c139dd6b46c7596cbd57cd79
184,1,"""","""","""","""","""",sampler,224,346305,0.0-6.0-218.0,"""","""","""","""","""","""","""","""","""","""","""","""","2021-08-09 16:15:48",72.239.172.164,"Mozilla/5.0 (Macintosh; Intel Mac OS X 10_15_7) AppleWebKit/537.36 (KHTML, like Gecko) Chrome/92.0.4515.131 Safari/537.36",Macintosh,Chrome,92.0.4515.131,"OS X",10_15_7,5f461dd6c139dd6b46c7596cbd57cd79
184,1,"""","""","""","""","""",sampler,225,346305,0.0-6.0-219.0,"""","""","""","""","""","""","""","""","""","""","""","""","2021-08-09 16:15:48",72.239.172.164,"Mozilla/5.0 (Macintosh; Intel Mac OS X 10_15_7) AppleWebKit/537.36 (KHTML, like Gecko) Chrome/92.0.4515.131 Safari/537.36",Macintosh,Chrome,92.0.4515.131,"OS X",10_15_7,5f461dd6c139dd6b46c7596cbd57cd79
184,1,"""","""","""","""","""",sampler,226,346305,0.0-6.0-220.0,"""","""","""","""","""","""","""","""","""","""","""","""","2021-08-09 16:15:48",72.239.172.164,"Mozilla/5.0 (Macintosh; Intel Mac OS X 10_15_7) AppleWebKit/537.36 (KHTML, like Gecko) Chrome/92.0.4515.131 Safari/537.36",Macintosh,Chrome,92.0.4515.131,"OS X",10_15_7,5f461dd6c139dd6b46c7596cbd57cd79
184,1,"""","""","""","""","""",sampler,227,346305,0.0-6.0-221.0,"""","""","""","""","""","""","""","""","""","""","""","""","2021-08-09 16:15:48",72.239.172.164,"Mozilla/5.0 (Macintosh; Intel Mac OS X 10_15_7) AppleWebKit/537.36 (KHTML, like Gecko) Chrome/92.0.4515.131 Safari/537.36",Macintosh,Chrome,92.0.4515.131,"OS X",10_15_7,5f461dd6c139dd6b46c7596cbd57cd79
184,1,"""","""","""","""","""",sampler,228,346305,0.0-6.0-222.0,"""","""","""","""","""","""","""","""","""","""","""","""","2021-08-09 16:15:48",72.239.172.164,"Mozilla/5.0 (Macintosh; Intel Mac OS X 10_15_7) AppleWebKit/537.36 (KHTML, like Gecko) Chrome/92.0.4515.131 Safari/537.36",Macintosh,Chrome,92.0.4515.131,"OS X",10_15_7,5f461dd6c139dd6b46c7596cbd57cd79
184,1,"""","""","""","""","""",sampler,229,346305,0.0-6.0-223.0,"""","""","""","""","""","""","""","""","""","""","""","""","2021-08-09 16:15:48",72.239.172.164,"Mozilla/5.0 (Macintosh; Intel Mac OS X 10_15_7) AppleWebKit/537.36 (KHTML, like Gecko) Chrome/92.0.4515.131 Safari/537.36",Macintosh,Chrome,92.0.4515.131,"OS X",10_15_7,5f461dd6c139dd6b46c7596cbd57cd79
184,1,"""","""","""","""","""",sampler,230,346306,0.0-6.0-224.0,"""","""","""","""","""","""","""","""","""","""","""","""","2021-08-09 16:15:48",72.239.172.164,"Mozilla/5.0 (Macintosh; Intel Mac OS X 10_15_7) AppleWebKit/537.36 (KHTML, like Gecko) Chrome/92.0.4515.131 Safari/537.36",Macintosh,Chrome,92.0.4515.131,"OS X",10_15_7,5f461dd6c139dd6b46c7596cbd57cd79
184,1,"""","""","""","""","""",sampler,231,346306,0.0-6.0-225.0,"""","""","""","""","""","""","""","""","""","""","""","""","2021-08-09 16:15:48",72.239.172.164,"Mozilla/5.0 (Macintosh; Intel Mac OS X 10_15_7) AppleWebKit/537.36 (KHTML, like Gecko) Chrome/92.0.4515.131 Safari/537.36",Macintosh,Chrome,92.0.4515.131,"OS X",10_15_7,5f461dd6c139dd6b46c7596cbd57cd79
184,1,"""","""","""","""","""",sampler,232,346306,0.0-6.0-226.0,"""","""","""","""","""","""","""","""","""","""","""","""","2021-08-09 16:15:48",72.239.172.164,"Mozilla/5.0 (Macintosh; Intel Mac OS X 10_15_7) AppleWebKit/537.36 (KHTML, like Gecko) Chrome/92.0.4515.131 Safari/537.36",Macintosh,Chrome,92.0.4515.131,"OS X",10_15_7,5f461dd6c139dd6b46c7596cbd57cd79
184,1,"""","""","""","""","""",sampler,233,346306,0.0-6.0-227.0,"""","""","""","""","""","""","""","""","""","""","""","""","2021-08-09 16:15:48",72.239.172.164,"Mozilla/5.0 (Macintosh; Intel Mac OS X 10_15_7) AppleWebKit/537.36 (KHTML, like Gecko) Chrome/92.0.4515.131 Safari/537.36",Macintosh,Chrome,92.0.4515.131,"OS X",10_15_7,5f461dd6c139dd6b46c7596cbd57cd79
184,1,"""","""","""","""","""",sampler,234,346306,0.0-6.0-228.0,"""","""","""","""","""","""","""","""","""","""","""","""","2021-08-09 16:15:48",72.239.172.164,"Mozilla/5.0 (Macintosh; Intel Mac OS X 10_15_7) AppleWebKit/537.36 (KHTML, like Gecko) Chrome/92.0.4515.131 Safari/537.36",Macintosh,Chrome,92.0.4515.131,"OS X",10_15_7,5f461dd6c139dd6b46c7596cbd57cd79
184,1,"""","""","""","""","""",sampler,235,346306,0.0-6.0-229.0,"""","""","""","""","""","""","""","""","""","""","""","""","2021-08-09 16:15:48",72.239.172.164,"Mozilla/5.0 (Macintosh; Intel Mac OS X 10_15_7) AppleWebKit/537.36 (KHTML, like Gecko) Chrome/92.0.4515.131 Safari/537.36",Macintosh,Chrome,92.0.4515.131,"OS X",10_15_7,5f461dd6c139dd6b46c7596cbd57cd79
184,1,"""","""","""","""","""",sampler,236,346306,0.0-6.0-230.0,"""","""","""","""","""","""","""","""","""","""","""","""","2021-08-09 16:15:48",72.239.172.164,"Mozilla/5.0 (Macintosh; Intel Mac OS X 10_15_7) AppleWebKit/537.36 (KHTML, like Gecko) Chrome/92.0.4515.131 Safari/537.36",Macintosh,Chrome,92.0.4515.131,"OS X",10_15_7,5f461dd6c139dd6b46c7596cbd57cd79
184,1,"""","""","""","""","""",sampler,237,346306,0.0-6.0-231.0,"""","""","""","""","""","""","""","""","""","""","""","""","2021-08-09 16:15:48",72.239.172.164,"Mozilla/5.0 (Macintosh; Intel Mac OS X 10_15_7) AppleWebKit/537.36 (KHTML, like Gecko) Chrome/92.0.4515.131 Safari/537.36",Macintosh,Chrome,92.0.4515.131,"OS X",10_15_7,5f461dd6c139dd6b46c7596cbd57cd79
184,1,"""","""","""","""","""",sampler,238,346306,0.0-6.0-232.0,"""","""","""","""","""","""","""","""","""","""","""","""","2021-08-09 16:15:48",72.239.172.164,"Mozilla/5.0 (Macintosh; Intel Mac OS X 10_15_7) AppleWebKit/537.36 (KHTML, like Gecko) Chrome/92.0.4515.131 Safari/537.36",Macintosh,Chrome,92.0.4515.131,"OS X",10_15_7,5f461dd6c139dd6b46c7596cbd57cd79
184,1,"""","""","""","""","""",sampler,239,346306,0.0-6.0-233.0,"""","""","""","""","""","""","""","""","""","""","""","""","2021-08-09 16:15:48",72.239.172.164,"Mozilla/5.0 (Macintosh; Intel Mac OS X 10_15_7) AppleWebKit/537.36 (KHTML, like Gecko) Chrome/92.0.4515.131 Safari/537.36",Macintosh,Chrome,92.0.4515.131,"OS X",10_15_7,5f461dd6c139dd6b46c7596cbd57cd79
184,1,"""","""","""","""","""",sampler,240,346306,0.0-6.0-234.0,"""","""","""","""","""","""","""","""","""","""","""","""","2021-08-09 16:15:48",72.239.172.164,"Mozilla/5.0 (Macintosh; Intel Mac OS X 10_15_7) AppleWebKit/537.36 (KHTML, like Gecko) Chrome/92.0.4515.131 Safari/537.36",Macintosh,Chrome,92.0.4515.131,"OS X",10_15_7,5f461dd6c139dd6b46c7596cbd57cd79
184,1,"""","""","""","""","""",sampler,241,346307,0.0-6.0-235.0,"""","""","""","""","""","""","""","""","""","""","""","""","2021-08-09 16:15:48",72.239.172.164,"Mozilla/5.0 (Macintosh; Intel Mac OS X 10_15_7) AppleWebKit/537.36 (KHTML, like Gecko) Chrome/92.0.4515.131 Safari/537.36",Macintosh,Chrome,92.0.4515.131,"OS X",10_15_7,5f461dd6c139dd6b46c7596cbd57cd79
184,1,"""","""","""","""","""",sampler,242,346307,0.0-6.0-236.0,"""","""","""","""","""","""","""","""","""","""","""","""","2021-08-09 16:15:48",72.239.172.164,"Mozilla/5.0 (Macintosh; Intel Mac OS X 10_15_7) AppleWebKit/537.36 (KHTML, like Gecko) Chrome/92.0.4515.131 Safari/537.36",Macintosh,Chrome,92.0.4515.131,"OS X",10_15_7,5f461dd6c139dd6b46c7596cbd57cd79
184,1,"""","""","""","""","""",sampler,243,346307,0.0-6.0-237.0,"""","""","""","""","""","""","""","""","""","""","""","""","2021-08-09 16:15:48",72.239.172.164,"Mozilla/5.0 (Macintosh; Intel Mac OS X 10_15_7) AppleWebKit/537.36 (KHTML, like Gecko) Chrome/92.0.4515.131 Safari/537.36",Macintosh,Chrome,92.0.4515.131,"OS X",10_15_7,5f461dd6c139dd6b46c7596cbd57cd79
184,1,"""","""","""","""","""",sampler,244,346307,0.0-6.0-238.0,"""","""","""","""","""","""","""","""","""","""","""","""","2021-08-09 16:15:48",72.239.172.164,"Mozilla/5.0 (Macintosh; Intel Mac OS X 10_15_7) AppleWebKit/537.36 (KHTML, like Gecko) Chrome/92.0.4515.131 Safari/537.36",Macintosh,Chrome,92.0.4515.131,"OS X",10_15_7,5f461dd6c139dd6b46c7596cbd57cd79
184,1,"""","""","""","""","""",sampler,245,346307,0.0-6.0-239.0,"""","""","""","""","""","""","""","""","""","""","""","""","2021-08-09 16:15:48",72.239.172.164,"Mozilla/5.0 (Macintosh; Intel Mac OS X 10_15_7) AppleWebKit/537.36 (KHTML, like Gecko) Chrome/92.0.4515.131 Safari/537.36",Macintosh,Chrome,92.0.4515.131,"OS X",10_15_7,5f461dd6c139dd6b46c7596cbd57cd79
184,1,"""","""","""","""","""",sampler,246,346307,0.0-6.0-240.0,"""","""","""","""","""","""","""","""","""","""","""","""","2021-08-09 16:15:48",72.239.172.164,"Mozilla/5.0 (Macintosh; Intel Mac OS X 10_15_7) AppleWebKit/537.36 (KHTML, like Gecko) Chrome/92.0.4515.131 Safari/537.36",Macintosh,Chrome,92.0.4515.131,"OS X",10_15_7,5f461dd6c139dd6b46c7596cbd57cd79
184,1,"""","""","""","""","""",sampler,247,346307,0.0-6.0-241.0,"""","""","""","""","""","""","""","""","""","""","""","""","2021-08-09 16:15:48",72.239.172.164,"Mozilla/5.0 (Macintosh; Intel Mac OS X 10_15_7) AppleWebKit/537.36 (KHTML, like Gecko) Chrome/92.0.4515.131 Safari/537.36",Macintosh,Chrome,92.0.4515.131,"OS X",10_15_7,5f461dd6c139dd6b46c7596cbd57cd79
184,1,"""","""","""","""","""",sampler,248,346307,0.0-6.0-242.0,"""","""","""","""","""","""","""","""","""","""","""","""","2021-08-09 16:15:48",72.239.172.164,"Mozilla/5.0 (Macintosh; Intel Mac OS X 10_15_7) AppleWebKit/537.36 (KHTML, like Gecko) Chrome/92.0.4515.131 Safari/537.36",Macintosh,Chrome,92.0.4515.131,"OS X",10_15_7,5f461dd6c139dd6b46c7596cbd57cd79
184,1,"""","""","""","""","""",sampler,249,346307,0.0-6.0-243.0,"""","""","""","""","""","""","""","""","""","""","""","""","2021-08-09 16:15:48",72.239.172.164,"Mozilla/5.0 (Macintosh; Intel Mac OS X 10_15_7) AppleWebKit/537.36 (KHTML, like Gecko) Chrome/92.0.4515.131 Safari/537.36",Macintosh,Chrome,92.0.4515.131,"OS X",10_15_7,5f461dd6c139dd6b46c7596cbd57cd79
184,1,"""","""","""","""","""",sampler,250,346307,0.0-6.0-244.0,"""","""","""","""","""","""","""","""","""","""","""","""","2021-08-09 16:15:48",72.239.172.164,"Mozilla/5.0 (Macintosh; Intel Mac OS X 10_15_7) AppleWebKit/537.36 (KHTML, like Gecko) Chrome/92.0.4515.131 Safari/537.36",Macintosh,Chrome,92.0.4515.131,"OS X",10_15_7,5f461dd6c139dd6b46c7596cbd57cd79
184,1,"""","""","""","""","""",sampler,251,346307,0.0-6.0-245.0,"""","""","""","""","""","""","""","""","""","""","""","""","2021-08-09 16:15:48",72.239.172.164,"Mozilla/5.0 (Macintosh; Intel Mac OS X 10_15_7) AppleWebKit/537.36 (KHTML, like Gecko) Chrome/92.0.4515.131 Safari/537.36",Macintosh,Chrome,92.0.4515.131,"OS X",10_15_7,5f461dd6c139dd6b46c7596cbd57cd79
184,1,"""","""","""","""","""",sampler,252,346307,0.0-6.0-246.0,"""","""","""","""","""","""","""","""","""","""","""","""","2021-08-09 16:15:48",72.239.172.164,"Mozilla/5.0 (Macintosh; Intel Mac OS X 10_15_7) AppleWebKit/537.36 (KHTML, like Gecko) Chrome/92.0.4515.131 Safari/537.36",Macintosh,Chrome,92.0.4515.131,"OS X",10_15_7,5f461dd6c139dd6b46c7596cbd57cd79
184,1,"""","""","""","""","""",sampler,253,346308,0.0-6.0-247.0,"""","""","""","""","""","""","""","""","""","""","""","""","2021-08-09 16:15:48",72.239.172.164,"Mozilla/5.0 (Macintosh; Intel Mac OS X 10_15_7) AppleWebKit/537.36 (KHTML, like Gecko) Chrome/92.0.4515.131 Safari/537.36",Macintosh,Chrome,92.0.4515.131,"OS X",10_15_7,5f461dd6c139dd6b46c7596cbd57cd79
184,1,"""","""","""","""","""",sampler,254,346308,0.0-6.0-248.0,"""","""","""","""","""","""","""","""","""","""","""","""","2021-08-09 16:15:48",72.239.172.164,"Mozilla/5.0 (Macintosh; Intel Mac OS X 10_15_7) AppleWebKit/537.36 (KHTML, like Gecko) Chrome/92.0.4515.131 Safari/537.36",Macintosh,Chrome,92.0.4515.131,"OS X",10_15_7,5f461dd6c139dd6b46c7596cbd57cd79
184,1,"""","""","""","""","""",sampler,255,346308,0.0-6.0-249.0,"""","""","""","""","""","""","""","""","""","""","""","""","2021-08-09 16:15:48",72.239.172.164,"Mozilla/5.0 (Macintosh; Intel Mac OS X 10_15_7) AppleWebKit/537.36 (KHTML, like Gecko) Chrome/92.0.4515.131 Safari/537.36",Macintosh,Chrome,92.0.4515.131,"OS X",10_15_7,5f461dd6c139dd6b46c7596cbd57cd79
184,1,"""","""","""","""","""",sampler,256,346308,0.0-6.0-250.0,"""","""","""","""","""","""","""","""","""","""","""","""","2021-08-09 16:15:48",72.239.172.164,"Mozilla/5.0 (Macintosh; Intel Mac OS X 10_15_7) AppleWebKit/537.36 (KHTML, like Gecko) Chrome/92.0.4515.131 Safari/537.36",Macintosh,Chrome,92.0.4515.131,"OS X",10_15_7,5f461dd6c139dd6b46c7596cbd57cd79
184,1,"""","""","""","""","""",sampler,257,346308,0.0-6.0-251.0,"""","""","""","""","""","""","""","""","""","""","""","""","2021-08-09 16:15:48",72.239.172.164,"Mozilla/5.0 (Macintosh; Intel Mac OS X 10_15_7) AppleWebKit/537.36 (KHTML, like Gecko) Chrome/92.0.4515.131 Safari/537.36",Macintosh,Chrome,92.0.4515.131,"OS X",10_15_7,5f461dd6c139dd6b46c7596cbd57cd79
184,1,"""","""","""","""","""",sampler,258,346308,0.0-6.0-252.0,"""","""","""","""","""","""","""","""","""","""","""","""","2021-08-09 16:15:48",72.239.172.164,"Mozilla/5.0 (Macintosh; Intel Mac OS X 10_15_7) AppleWebKit/537.36 (KHTML, like Gecko) Chrome/92.0.4515.131 Safari/537.36",Macintosh,Chrome,92.0.4515.131,"OS X",10_15_7,5f461dd6c139dd6b46c7596cbd57cd79
184,1,"""","""","""","""","""",sampler,259,346308,0.0-6.0-253.0,"""","""","""","""","""","""","""","""","""","""","""","""","2021-08-09 16:15:48",72.239.172.164,"Mozilla/5.0 (Macintosh; Intel Mac OS X 10_15_7) AppleWebKit/537.36 (KHTML, like Gecko) Chrome/92.0.4515.131 Safari/537.36",Macintosh,Chrome,92.0.4515.131,"OS X",10_15_7,5f461dd6c139dd6b46c7596cbd57cd79
184,1,"""","""","""","""","""",sampler,260,346308,0.0-6.0-254.0,"""","""","""","""","""","""","""","""","""","""","""","""","2021-08-09 16:15:48",72.239.172.164,"Mozilla/5.0 (Macintosh; Intel Mac OS X 10_15_7) AppleWebKit/537.36 (KHTML, like Gecko) Chrome/92.0.4515.131 Safari/537.36",Macintosh,Chrome,92.0.4515.131,"OS X",10_15_7,5f461dd6c139dd6b46c7596cbd57cd79
184,1,"""","""","""","""","""",sampler,261,346308,0.0-6.0-255.0,"""","""","""","""","""","""","""","""","""","""","""","""","2021-08-09 16:15:48",72.239.172.164,"Mozilla/5.0 (Macintosh; Intel Mac OS X 10_15_7) AppleWebKit/537.36 (KHTML, like Gecko) Chrome/92.0.4515.131 Safari/537.36",Macintosh,Chrome,92.0.4515.131,"OS X",10_15_7,5f461dd6c139dd6b46c7596cbd57cd79
184,1,"""","""","""","""","""",sampler,262,346308,0.0-6.0-256.0,"""","""","""","""","""","""","""","""","""","""","""","""","2021-08-09 16:15:48",72.239.172.164,"Mozilla/5.0 (Macintosh; Intel Mac OS X 10_15_7) AppleWebKit/537.36 (KHTML, like Gecko) Chrome/92.0.4515.131 Safari/537.36",Macintosh,Chrome,92.0.4515.131,"OS X",10_15_7,5f461dd6c139dd6b46c7596cbd57cd79
184,1,"""","""","""","""","""",sampler,263,346308,0.0-6.0-257.0,"""","""","""","""","""","""","""","""","""","""","""","""","2021-08-09 16:15:48",72.239.172.164,"Mozilla/5.0 (Macintosh; Intel Mac OS X 10_15_7) AppleWebKit/537.36 (KHTML, like Gecko) Chrome/92.0.4515.131 Safari/537.36",Macintosh,Chrome,92.0.4515.131,"OS X",10_15_7,5f461dd6c139dd6b46c7596cbd57cd79
184,1,"""","""","""","""","""",sampler,264,346308,0.0-6.0-258.0,"""","""","""","""","""","""","""","""","""","""","""","""","2021-08-09 16:15:48",72.239.172.164,"Mozilla/5.0 (Macintosh; Intel Mac OS X 10_15_7) AppleWebKit/537.36 (KHTML, like Gecko) Chrome/92.0.4515.131 Safari/537.36",Macintosh,Chrome,92.0.4515.131,"OS X",10_15_7,5f461dd6c139dd6b46c7596cbd57cd79
184,1,"""","""","""","""","""",sampler,265,346309,0.0-6.0-259.0,"""","""","""","""","""","""","""","""","""","""","""","""","2021-08-09 16:15:48",72.239.172.164,"Mozilla/5.0 (Macintosh; Intel Mac OS X 10_15_7) AppleWebKit/537.36 (KHTML, like Gecko) Chrome/92.0.4515.131 Safari/537.36",Macintosh,Chrome,92.0.4515.131,"OS X",10_15_7,5f461dd6c139dd6b46c7596cbd57cd79
184,1,"""","""","""","""","""",sampler,266,346309,0.0-6.0-260.0,"""","""","""","""","""","""","""","""","""","""","""","""","2021-08-09 16:15:48",72.239.172.164,"Mozilla/5.0 (Macintosh; Intel Mac OS X 10_15_7) AppleWebKit/537.36 (KHTML, like Gecko) Chrome/92.0.4515.131 Safari/537.36",Macintosh,Chrome,92.0.4515.131,"OS X",10_15_7,5f461dd6c139dd6b46c7596cbd57cd79
184,1,"""","""","""","""","""",sampler,267,346309,0.0-6.0-261.0,"""","""","""","""","""","""","""","""","""","""","""","""","2021-08-09 16:15:48",72.239.172.164,"Mozilla/5.0 (Macintosh; Intel Mac OS X 10_15_7) AppleWebKit/537.36 (KHTML, like Gecko) Chrome/92.0.4515.131 Safari/537.36",Macintosh,Chrome,92.0.4515.131,"OS X",10_15_7,5f461dd6c139dd6b46c7596cbd57cd79
184,1,"""","""","""","""","""",sampler,268,346309,0.0-6.0-262.0,"""","""","""","""","""","""","""","""","""","""","""","""","2021-08-09 16:15:48",72.239.172.164,"Mozilla/5.0 (Macintosh; Intel Mac OS X 10_15_7) AppleWebKit/537.36 (KHTML, like Gecko) Chrome/92.0.4515.131 Safari/537.36",Macintosh,Chrome,92.0.4515.131,"OS X",10_15_7,5f461dd6c139dd6b46c7596cbd57cd79
