run_id,condition,success,timeout,failed_images,failed_audio,failed_video,trial_type,trial_index,time_elapsed,internal_node_id,rt,stimulus,key_press,responses,view_history,correct,image_click,points,sd,points2,total_earn,button_pressed,recorded_at,ip,user_agent,device,browser,browser_version,platform,platform_version,source_code_version
231,1,true,false,"""","""","""",preload,0,281,0.0-0.0,"""","""","""","""","""","""","""","""","""","""","""","""","2021-08-17 18:04:35",206.47.105.162,"Mozilla/5.0 (Windows NT 10.0; Win64; x64) AppleWebKit/537.36 (KHTML, like Gecko) Chrome/92.0.4515.131 Safari/537.36",WebKit,Chrome,92.0.4515.131,Windows,10.0,5f461dd6c139dd6b46c7596cbd57cd79
231,1,"""","""","""","""","""",html-keyboard-response,1,2595,0.0-1.0,2311,"<font size=15>Welcome to our experiment!</font><br><br><br><i> Press <b>space bar</b> to begin.</i>",32,"""","""","""","""","""","""","""","""","""","2021-08-17 18:04:35",206.47.105.162,"Mozilla/5.0 (Windows NT 10.0; Win64; x64) AppleWebKit/537.36 (KHTML, like Gecko) Chrome/92.0.4515.131 Safari/537.36",WebKit,Chrome,92.0.4515.131,Windows,10.0,5f461dd6c139dd6b46c7596cbd57cd79
231,1,"""","""","""","""","""",survey-multi-choice,2,9111,0.0-2.0,6514,"""","""","{""Q0"":""Yes"",""Q1"":""Yes"",""Q2"":""Yes"",""Q3"":""Yes""}","""","""","""","""","""","""","""","""","2021-08-17 18:04:35",206.47.105.162,"Mozilla/5.0 (Windows NT 10.0; Win64; x64) AppleWebKit/537.36 (KHTML, like Gecko) Chrome/92.0.4515.131 Safari/537.36",WebKit,Chrome,92.0.4515.131,Windows,10.0,5f461dd6c139dd6b46c7596cbd57cd79
231,1,"""","""","""","""","""",survey-html-form,3,18415,0.0-3.0,9298.900000095367,"""","""","{""gender"":""female"",""age"":""44"",""hand"":""right"",""mail"":""60ede9d2318a73b73b4a2227""}","""","""","""","""","""","""","""","""","2021-08-17 18:04:35",206.47.105.162,"Mozilla/5.0 (Windows NT 10.0; Win64; x64) AppleWebKit/537.36 (KHTML, like Gecko) Chrome/92.0.4515.131 Safari/537.36",WebKit,Chrome,92.0.4515.131,Windows,10.0,5f461dd6c139dd6b46c7596cbd57cd79
231,1,true,"""","""","""","""",fullscreen,4,22067,0.0-4.0,"""","""","""","""","""","""","""","""","""","""","""","""","2021-08-17 18:04:35",206.47.105.162,"Mozilla/5.0 (Windows NT 10.0; Win64; x64) AppleWebKit/537.36 (KHTML, like Gecko) Chrome/92.0.4515.131 Safari/537.36",WebKit,Chrome,92.0.4515.131,Windows,10.0,5f461dd6c139dd6b46c7596cbd57cd79
231,1,"""","""","""","""","""",multikey-instructions,5,83010,0.0-5.0,60941,"""","""","""","[{""page_index"":0,""viewing_time"":14149},{""page_index"":1,""viewing_time"":20528},{""page_index"":2,""viewing_time"":12192},{""page_index"":3,""viewing_time"":7000},{""page_index"":4,""viewing_time"":2752},{""page_index"":5,""viewing_time"":1864},{""page_index"":6,""viewing_time"":1328},{""page_index"":7,""viewing_time"":400},{""page_index"":8,""viewing_time"":192},{""page_index"":9,""viewing_time"":168},{""page_index"":10,""viewing_time"":136},{""page_index"":11,""viewing_time"":232}]","""","""","""","""","""","""","""","2021-08-17 18:04:35",206.47.105.162,"Mozilla/5.0 (Windows NT 10.0; Win64; x64) AppleWebKit/537.36 (KHTML, like Gecko) Chrome/92.0.4515.131 Safari/537.36",WebKit,Chrome,92.0.4515.131,Windows,10.0,5f461dd6c139dd6b46c7596cbd57cd79
231,1,"""","""","""","""","""",sampler,6,83548,0.0-6.0-0.0,126,img/Cyan.png,"""","""","""",false,-1,-1.5649480661975206,10,"""","""","""","2021-08-17 18:04:35",206.47.105.162,"Mozilla/5.0 (Windows NT 10.0; Win64; x64) AppleWebKit/537.36 (KHTML, like Gecko) Chrome/92.0.4515.131 Safari/537.36",WebKit,Chrome,92.0.4515.131,Windows,10.0,5f461dd6c139dd6b46c7596cbd57cd79
231,1,"""","""","""","""","""",sampler,7,92207,0.0-6.0-1.0,8245,img/Cyan.png,"""","""","""",false,-1,13.24980317195538,10,"""","""","""","2021-08-17 18:04:35",206.47.105.162,"Mozilla/5.0 (Windows NT 10.0; Win64; x64) AppleWebKit/537.36 (KHTML, like Gecko) Chrome/92.0.4515.131 Safari/537.36",WebKit,Chrome,92.0.4515.131,Windows,10.0,5f461dd6c139dd6b46c7596cbd57cd79
231,1,"""","""","""","""","""",sampler,8,93507,0.0-6.0-2.0,890,img/Cyan.png,"""","""","""",false,-1,10.595023169361212,10,"""","""","""","2021-08-17 18:04:35",206.47.105.162,"Mozilla/5.0 (Windows NT 10.0; Win64; x64) AppleWebKit/537.36 (KHTML, like Gecko) Chrome/92.0.4515.131 Safari/537.36",WebKit,Chrome,92.0.4515.131,Windows,10.0,5f461dd6c139dd6b46c7596cbd57cd79
231,1,"""","""","""","""","""",sampler,9,94052,0.0-6.0-3.0,134,img/Cyan.png,"""","""","""",false,-1,-6.726998762005788,10,"""","""","""","2021-08-17 18:04:35",206.47.105.162,"Mozilla/5.0 (Windows NT 10.0; Win64; x64) AppleWebKit/537.36 (KHTML, like Gecko) Chrome/92.0.4515.131 Safari/537.36",WebKit,Chrome,92.0.4515.131,Windows,10.0,5f461dd6c139dd6b46c7596cbd57cd79
231,1,"""","""","""","""","""",sampler,10,94591,0.0-6.0-4.0,134,img/Cyan.png,"""","""","""",false,-1,7.309161161701134,10,"""","""","""","2021-08-17 18:04:35",206.47.105.162,"Mozilla/5.0 (Windows NT 10.0; Win64; x64) AppleWebKit/537.36 (KHTML, like Gecko) Chrome/92.0.4515.131 Safari/537.36",WebKit,Chrome,92.0.4515.131,Windows,10.0,5f461dd6c139dd6b46c7596cbd57cd79
231,1,"""","""","""","""","""",sampler,11,95318,0.0-6.0-5.0,315,img/Cyan.png,"""","""","""",false,-1,6.133469239732903,10,"""","""","""","2021-08-17 18:04:35",206.47.105.162,"Mozilla/5.0 (Windows NT 10.0; Win64; x64) AppleWebKit/537.36 (KHTML, like Gecko) Chrome/92.0.4515.131 Safari/537.36",WebKit,Chrome,92.0.4515.131,Windows,10.0,5f461dd6c139dd6b46c7596cbd57cd79
231,1,"""","""","""","""","""",sampler,12,96003,0.0-6.0-6.0,275,img/Cyan.png,"""","""","""",false,-1,4.828106104065701,10,"""","""","""","2021-08-17 18:04:35",206.47.105.162,"Mozilla/5.0 (Windows NT 10.0; Win64; x64) AppleWebKit/537.36 (KHTML, like Gecko) Chrome/92.0.4515.131 Safari/537.36",WebKit,Chrome,92.0.4515.131,Windows,10.0,5f461dd6c139dd6b46c7596cbd57cd79
231,1,"""","""","""","""","""",sampler,13,96951,0.0-6.0-7.0,543,img/Cyan.png,"""","""","""",false,-1,-14.23508896382556,10,"""","""","""","2021-08-17 18:04:35",206.47.105.162,"Mozilla/5.0 (Windows NT 10.0; Win64; x64) AppleWebKit/537.36 (KHTML, like Gecko) Chrome/92.0.4515.131 Safari/537.36",WebKit,Chrome,92.0.4515.131,Windows,10.0,5f461dd6c139dd6b46c7596cbd57cd79
231,1,"""","""","""","""","""",sampler,14,97524,0.0-6.0-8.0,163,img/Cyan.png,"""","""","""",false,-1,12.847160234605553,10,"""","""","""","2021-08-17 18:04:35",206.47.105.162,"Mozilla/5.0 (Windows NT 10.0; Win64; x64) AppleWebKit/537.36 (KHTML, like Gecko) Chrome/92.0.4515.131 Safari/537.36",WebKit,Chrome,92.0.4515.131,Windows,10.0,5f461dd6c139dd6b46c7596cbd57cd79
231,1,"""","""","""","""","""",sampler,15,98112,0.0-6.0-9.0,174,img/Cyan.png,"""","""","""",false,-1,-2.6779081586198634,10,"""","""","""","2021-08-17 18:04:35",206.47.105.162,"Mozilla/5.0 (Windows NT 10.0; Win64; x64) AppleWebKit/537.36 (KHTML, like Gecko) Chrome/92.0.4515.131 Safari/537.36",WebKit,Chrome,92.0.4515.131,Windows,10.0,5f461dd6c139dd6b46c7596cbd57cd79
231,1,"""","""","""","""","""",sampler,16,98748,0.0-6.0-10.0,226,img/Cyan.png,"""","""","""",false,-1,-1.7974007884443788,10,"""","""","""","2021-08-17 18:04:35",206.47.105.162,"Mozilla/5.0 (Windows NT 10.0; Win64; x64) AppleWebKit/537.36 (KHTML, like Gecko) Chrome/92.0.4515.131 Safari/537.36",WebKit,Chrome,92.0.4515.131,Windows,10.0,5f461dd6c139dd6b46c7596cbd57cd79
231,1,"""","""","""","""","""",sampler,17,99383,0.0-6.0-11.0,229,img/Cyan.png,"""","""","""",false,-1,-9.608066039178995,10,"""","""","""","2021-08-17 18:04:35",206.47.105.162,"Mozilla/5.0 (Windows NT 10.0; Win64; x64) AppleWebKit/537.36 (KHTML, like Gecko) Chrome/92.0.4515.131 Safari/537.36",WebKit,Chrome,92.0.4515.131,Windows,10.0,5f461dd6c139dd6b46c7596cbd57cd79
231,1,"""","""","""","""","""",sampler,18,100110,0.0-6.0-12.0,315,img/Cyan.png,"""","""","""",false,-1,-11.762004847385779,10,"""","""","""","2021-08-17 18:04:35",206.47.105.162,"Mozilla/5.0 (Windows NT 10.0; Win64; x64) AppleWebKit/537.36 (KHTML, like Gecko) Chrome/92.0.4515.131 Safari/537.36",WebKit,Chrome,92.0.4515.131,Windows,10.0,5f461dd6c139dd6b46c7596cbd57cd79
231,1,"""","""","""","""","""",sampler,19,100790,0.0-6.0-13.0,268,img/Cyan.png,"""","""","""",false,-1,-2.100298968071436,10,"""","""","""","2021-08-17 18:04:35",206.47.105.162,"Mozilla/5.0 (Windows NT 10.0; Win64; x64) AppleWebKit/537.36 (KHTML, like Gecko) Chrome/92.0.4515.131 Safari/537.36",WebKit,Chrome,92.0.4515.131,Windows,10.0,5f461dd6c139dd6b46c7596cbd57cd79
231,1,"""","""","""","""","""",sampler,20,101411,0.0-6.0-14.0,219,img/Cyan.png,"""","""","""",false,-1,4.824378609660346,10,"""","""","""","2021-08-17 18:04:35",206.47.105.162,"Mozilla/5.0 (Windows NT 10.0; Win64; x64) AppleWebKit/537.36 (KHTML, like Gecko) Chrome/92.0.4515.131 Safari/537.36",WebKit,Chrome,92.0.4515.131,Windows,10.0,5f461dd6c139dd6b46c7596cbd57cd79
231,1,"""","""","""","""","""",sampler,21,102379,0.0-6.0-15.0,558,img/Cyan.png,"""","""","""",false,-1,22.860096537290868,10,"""","""","""","2021-08-17 18:04:35",206.47.105.162,"Mozilla/5.0 (Windows NT 10.0; Win64; x64) AppleWebKit/537.36 (KHTML, like Gecko) Chrome/92.0.4515.131 Safari/537.36",WebKit,Chrome,92.0.4515.131,Windows,10.0,5f461dd6c139dd6b46c7596cbd57cd79
231,1,"""","""","""","""","""",sampler,22,104506,0.0-6.0-16.0,1717,img/Cyan.png,"""","""","""",false,-1,-6.204667908183509,10,"""","""","""","2021-08-17 18:04:35",206.47.105.162,"Mozilla/5.0 (Windows NT 10.0; Win64; x64) AppleWebKit/537.36 (KHTML, like Gecko) Chrome/92.0.4515.131 Safari/537.36",WebKit,Chrome,92.0.4515.131,Windows,10.0,5f461dd6c139dd6b46c7596cbd57cd79
231,1,"""","""","""","""","""",sampler,23,105156,0.0-6.0-17.0,246,img/Cyan.png,"""","""","""",false,-1,-2.2947468801768416,10,"""","""","""","2021-08-17 18:04:35",206.47.105.162,"Mozilla/5.0 (Windows NT 10.0; Win64; x64) AppleWebKit/537.36 (KHTML, like Gecko) Chrome/92.0.4515.131 Safari/537.36",WebKit,Chrome,92.0.4515.131,Windows,10.0,5f461dd6c139dd6b46c7596cbd57cd79
231,1,"""","""","""","""","""",sampler,24,106087,0.0-6.0-18.0,526,img/Cyan.png,"""","""","""",false,-1,-4.208253948684433,10,"""","""","""","2021-08-17 18:04:35",206.47.105.162,"Mozilla/5.0 (Windows NT 10.0; Win64; x64) AppleWebKit/537.36 (KHTML, like Gecko) Chrome/92.0.4515.131 Safari/537.36",WebKit,Chrome,92.0.4515.131,Windows,10.0,5f461dd6c139dd6b46c7596cbd57cd79
231,1,"""","""","""","""","""",sampler,25,106581,0.0-6.0-19.0,83,img/Cyan.png,"""","""","""",false,-1,1.2481052020522285,10,"""","""","""","2021-08-17 18:04:35",206.47.105.162,"Mozilla/5.0 (Windows NT 10.0; Win64; x64) AppleWebKit/537.36 (KHTML, like Gecko) Chrome/92.0.4515.131 Safari/537.36",WebKit,Chrome,92.0.4515.131,Windows,10.0,5f461dd6c139dd6b46c7596cbd57cd79
231,1,"""","""","""","""","""",sampler,26,107447,0.0-6.0-20.0,452,img/Cyan.png,"""","""","""",false,-1,-5.7774941529534445,10,"""","""","""","2021-08-17 18:04:35",206.47.105.162,"Mozilla/5.0 (Windows NT 10.0; Win64; x64) AppleWebKit/537.36 (KHTML, like Gecko) Chrome/92.0.4515.131 Safari/537.36",WebKit,Chrome,92.0.4515.131,Windows,10.0,5f461dd6c139dd6b46c7596cbd57cd79
231,1,"""","""","""","""","""",sampler,27,108006,0.0-6.0-21.0,155,img/Cyan.png,"""","""","""",false,-1,2.6710074758633175,10,"""","""","""","2021-08-17 18:04:35",206.47.105.162,"Mozilla/5.0 (Windows NT 10.0; Win64; x64) AppleWebKit/537.36 (KHTML, like Gecko) Chrome/92.0.4515.131 Safari/537.36",WebKit,Chrome,92.0.4515.131,Windows,10.0,5f461dd6c139dd6b46c7596cbd57cd79
231,1,"""","""","""","""","""",sampler,28,108688,0.0-6.0-22.0,275,img/Cyan.png,"""","""","""",false,-1,14.046147923159543,10,"""","""","""","2021-08-17 18:04:35",206.47.105.162,"Mozilla/5.0 (Windows NT 10.0; Win64; x64) AppleWebKit/537.36 (KHTML, like Gecko) Chrome/92.0.4515.131 Safari/537.36",WebKit,Chrome,92.0.4515.131,Windows,10.0,5f461dd6c139dd6b46c7596cbd57cd79
231,1,"""","""","""","""","""",sampler,29,113401,0.0-6.0-23.0,4298,img/Cyan.png,"""","""","""",false,-1,10.2442126933961,10,"""","""","""","2021-08-17 18:04:35",206.47.105.162,"Mozilla/5.0 (Windows NT 10.0; Win64; x64) AppleWebKit/537.36 (KHTML, like Gecko) Chrome/92.0.4515.131 Safari/537.36",WebKit,Chrome,92.0.4515.131,Windows,10.0,5f461dd6c139dd6b46c7596cbd57cd79
231,1,"""","""","""","""","""",sampler,30,114038,0.0-6.0-24.0,231,img/Cyan.png,"""","""","""",false,-1,21.174042875911734,10,"""","""","""","2021-08-17 18:04:35",206.47.105.162,"Mozilla/5.0 (Windows NT 10.0; Win64; x64) AppleWebKit/537.36 (KHTML, like Gecko) Chrome/92.0.4515.131 Safari/537.36",WebKit,Chrome,92.0.4515.131,Windows,10.0,5f461dd6c139dd6b46c7596cbd57cd79
231,1,"""","""","""","""","""",sampler,31,114038,0.0-6.0-25.0,"""","""","""","""","""","""","""","""","""","""","""","""","2021-08-17 18:04:35",206.47.105.162,"Mozilla/5.0 (Windows NT 10.0; Win64; x64) AppleWebKit/537.36 (KHTML, like Gecko) Chrome/92.0.4515.131 Safari/537.36",WebKit,Chrome,92.0.4515.131,Windows,10.0,5f461dd6c139dd6b46c7596cbd57cd79
231,1,"""","""","""","""","""",sampler,32,114038,0.0-6.0-26.0,"""","""","""","""","""","""","""","""","""","""","""","""","2021-08-17 18:04:35",206.47.105.162,"Mozilla/5.0 (Windows NT 10.0; Win64; x64) AppleWebKit/537.36 (KHTML, like Gecko) Chrome/92.0.4515.131 Safari/537.36",WebKit,Chrome,92.0.4515.131,Windows,10.0,5f461dd6c139dd6b46c7596cbd57cd79
231,1,"""","""","""","""","""",sampler,33,114038,0.0-6.0-27.0,"""","""","""","""","""","""","""","""","""","""","""","""","2021-08-17 18:04:35",206.47.105.162,"Mozilla/5.0 (Windows NT 10.0; Win64; x64) AppleWebKit/537.36 (KHTML, like Gecko) Chrome/92.0.4515.131 Safari/537.36",WebKit,Chrome,92.0.4515.131,Windows,10.0,5f461dd6c139dd6b46c7596cbd57cd79
231,1,"""","""","""","""","""",sampler,34,114038,0.0-6.0-28.0,"""","""","""","""","""","""","""","""","""","""","""","""","2021-08-17 18:04:35",206.47.105.162,"Mozilla/5.0 (Windows NT 10.0; Win64; x64) AppleWebKit/537.36 (KHTML, like Gecko) Chrome/92.0.4515.131 Safari/537.36",WebKit,Chrome,92.0.4515.131,Windows,10.0,5f461dd6c139dd6b46c7596cbd57cd79
231,1,"""","""","""","""","""",sampler,35,114039,0.0-6.0-29.0,"""","""","""","""","""","""","""","""","""","""","""","""","2021-08-17 18:04:35",206.47.105.162,"Mozilla/5.0 (Windows NT 10.0; Win64; x64) AppleWebKit/537.36 (KHTML, like Gecko) Chrome/92.0.4515.131 Safari/537.36",WebKit,Chrome,92.0.4515.131,Windows,10.0,5f461dd6c139dd6b46c7596cbd57cd79
231,1,"""","""","""","""","""",sampler,36,114039,0.0-6.0-30.0,"""","""","""","""","""","""","""","""","""","""","""","""","2021-08-17 18:04:35",206.47.105.162,"Mozilla/5.0 (Windows NT 10.0; Win64; x64) AppleWebKit/537.36 (KHTML, like Gecko) Chrome/92.0.4515.131 Safari/537.36",WebKit,Chrome,92.0.4515.131,Windows,10.0,5f461dd6c139dd6b46c7596cbd57cd79
231,1,"""","""","""","""","""",sampler,37,114039,0.0-6.0-31.0,"""","""","""","""","""","""","""","""","""","""","""","""","2021-08-17 18:04:35",206.47.105.162,"Mozilla/5.0 (Windows NT 10.0; Win64; x64) AppleWebKit/537.36 (KHTML, like Gecko) Chrome/92.0.4515.131 Safari/537.36",WebKit,Chrome,92.0.4515.131,Windows,10.0,5f461dd6c139dd6b46c7596cbd57cd79
231,1,"""","""","""","""","""",sampler,38,114039,0.0-6.0-32.0,"""","""","""","""","""","""","""","""","""","""","""","""","2021-08-17 18:04:35",206.47.105.162,"Mozilla/5.0 (Windows NT 10.0; Win64; x64) AppleWebKit/537.36 (KHTML, like Gecko) Chrome/92.0.4515.131 Safari/537.36",WebKit,Chrome,92.0.4515.131,Windows,10.0,5f461dd6c139dd6b46c7596cbd57cd79
231,1,"""","""","""","""","""",sampler,39,114039,0.0-6.0-33.0,"""","""","""","""","""","""","""","""","""","""","""","""","2021-08-17 18:04:35",206.47.105.162,"Mozilla/5.0 (Windows NT 10.0; Win64; x64) AppleWebKit/537.36 (KHTML, like Gecko) Chrome/92.0.4515.131 Safari/537.36",WebKit,Chrome,92.0.4515.131,Windows,10.0,5f461dd6c139dd6b46c7596cbd57cd79
231,1,"""","""","""","""","""",sampler,40,114039,0.0-6.0-34.0,"""","""","""","""","""","""","""","""","""","""","""","""","2021-08-17 18:04:35",206.47.105.162,"Mozilla/5.0 (Windows NT 10.0; Win64; x64) AppleWebKit/537.36 (KHTML, like Gecko) Chrome/92.0.4515.131 Safari/537.36",WebKit,Chrome,92.0.4515.131,Windows,10.0,5f461dd6c139dd6b46c7596cbd57cd79
231,1,"""","""","""","""","""",sampler,41,114039,0.0-6.0-35.0,"""","""","""","""","""","""","""","""","""","""","""","""","2021-08-17 18:04:35",206.47.105.162,"Mozilla/5.0 (Windows NT 10.0; Win64; x64) AppleWebKit/537.36 (KHTML, like Gecko) Chrome/92.0.4515.131 Safari/537.36",WebKit,Chrome,92.0.4515.131,Windows,10.0,5f461dd6c139dd6b46c7596cbd57cd79
231,1,"""","""","""","""","""",sampler,42,114039,0.0-6.0-36.0,"""","""","""","""","""","""","""","""","""","""","""","""","2021-08-17 18:04:35",206.47.105.162,"Mozilla/5.0 (Windows NT 10.0; Win64; x64) AppleWebKit/537.36 (KHTML, like Gecko) Chrome/92.0.4515.131 Safari/537.36",WebKit,Chrome,92.0.4515.131,Windows,10.0,5f461dd6c139dd6b46c7596cbd57cd79
231,1,"""","""","""","""","""",sampler,43,114039,0.0-6.0-37.0,"""","""","""","""","""","""","""","""","""","""","""","""","2021-08-17 18:04:35",206.47.105.162,"Mozilla/5.0 (Windows NT 10.0; Win64; x64) AppleWebKit/537.36 (KHTML, like Gecko) Chrome/92.0.4515.131 Safari/537.36",WebKit,Chrome,92.0.4515.131,Windows,10.0,5f461dd6c139dd6b46c7596cbd57cd79
231,1,"""","""","""","""","""",sampler,44,114039,0.0-6.0-38.0,"""","""","""","""","""","""","""","""","""","""","""","""","2021-08-17 18:04:35",206.47.105.162,"Mozilla/5.0 (Windows NT 10.0; Win64; x64) AppleWebKit/537.36 (KHTML, like Gecko) Chrome/92.0.4515.131 Safari/537.36",WebKit,Chrome,92.0.4515.131,Windows,10.0,5f461dd6c139dd6b46c7596cbd57cd79
231,1,"""","""","""","""","""",sampler,45,114039,0.0-6.0-39.0,"""","""","""","""","""","""","""","""","""","""","""","""","2021-08-17 18:04:35",206.47.105.162,"Mozilla/5.0 (Windows NT 10.0; Win64; x64) AppleWebKit/537.36 (KHTML, like Gecko) Chrome/92.0.4515.131 Safari/537.36",WebKit,Chrome,92.0.4515.131,Windows,10.0,5f461dd6c139dd6b46c7596cbd57cd79
231,1,"""","""","""","""","""",sampler,46,114040,0.0-6.0-40.0,"""","""","""","""","""","""","""","""","""","""","""","""","2021-08-17 18:04:35",206.47.105.162,"Mozilla/5.0 (Windows NT 10.0; Win64; x64) AppleWebKit/537.36 (KHTML, like Gecko) Chrome/92.0.4515.131 Safari/537.36",WebKit,Chrome,92.0.4515.131,Windows,10.0,5f461dd6c139dd6b46c7596cbd57cd79
231,1,"""","""","""","""","""",sampler,47,114040,0.0-6.0-41.0,"""","""","""","""","""","""","""","""","""","""","""","""","2021-08-17 18:04:35",206.47.105.162,"Mozilla/5.0 (Windows NT 10.0; Win64; x64) AppleWebKit/537.36 (KHTML, like Gecko) Chrome/92.0.4515.131 Safari/537.36",WebKit,Chrome,92.0.4515.131,Windows,10.0,5f461dd6c139dd6b46c7596cbd57cd79
231,1,"""","""","""","""","""",sampler,48,114040,0.0-6.0-42.0,"""","""","""","""","""","""","""","""","""","""","""","""","2021-08-17 18:04:35",206.47.105.162,"Mozilla/5.0 (Windows NT 10.0; Win64; x64) AppleWebKit/537.36 (KHTML, like Gecko) Chrome/92.0.4515.131 Safari/537.36",WebKit,Chrome,92.0.4515.131,Windows,10.0,5f461dd6c139dd6b46c7596cbd57cd79
231,1,"""","""","""","""","""",sampler,49,114040,0.0-6.0-43.0,"""","""","""","""","""","""","""","""","""","""","""","""","2021-08-17 18:04:35",206.47.105.162,"Mozilla/5.0 (Windows NT 10.0; Win64; x64) AppleWebKit/537.36 (KHTML, like Gecko) Chrome/92.0.4515.131 Safari/537.36",WebKit,Chrome,92.0.4515.131,Windows,10.0,5f461dd6c139dd6b46c7596cbd57cd79
231,1,"""","""","""","""","""",sampler,50,114040,0.0-6.0-44.0,"""","""","""","""","""","""","""","""","""","""","""","""","2021-08-17 18:04:35",206.47.105.162,"Mozilla/5.0 (Windows NT 10.0; Win64; x64) AppleWebKit/537.36 (KHTML, like Gecko) Chrome/92.0.4515.131 Safari/537.36",WebKit,Chrome,92.0.4515.131,Windows,10.0,5f461dd6c139dd6b46c7596cbd57cd79
231,1,"""","""","""","""","""",sampler,51,114040,0.0-6.0-45.0,"""","""","""","""","""","""","""","""","""","""","""","""","2021-08-17 18:04:35",206.47.105.162,"Mozilla/5.0 (Windows NT 10.0; Win64; x64) AppleWebKit/537.36 (KHTML, like Gecko) Chrome/92.0.4515.131 Safari/537.36",WebKit,Chrome,92.0.4515.131,Windows,10.0,5f461dd6c139dd6b46c7596cbd57cd79
231,1,"""","""","""","""","""",sampler,52,114040,0.0-6.0-46.0,"""","""","""","""","""","""","""","""","""","""","""","""","2021-08-17 18:04:35",206.47.105.162,"Mozilla/5.0 (Windows NT 10.0; Win64; x64) AppleWebKit/537.36 (KHTML, like Gecko) Chrome/92.0.4515.131 Safari/537.36",WebKit,Chrome,92.0.4515.131,Windows,10.0,5f461dd6c139dd6b46c7596cbd57cd79
231,1,"""","""","""","""","""",sampler,53,114040,0.0-6.0-47.0,"""","""","""","""","""","""","""","""","""","""","""","""","2021-08-17 18:04:35",206.47.105.162,"Mozilla/5.0 (Windows NT 10.0; Win64; x64) AppleWebKit/537.36 (KHTML, like Gecko) Chrome/92.0.4515.131 Safari/537.36",WebKit,Chrome,92.0.4515.131,Windows,10.0,5f461dd6c139dd6b46c7596cbd57cd79
231,1,"""","""","""","""","""",sampler,54,114040,0.0-6.0-48.0,"""","""","""","""","""","""","""","""","""","""","""","""","2021-08-17 18:04:35",206.47.105.162,"Mozilla/5.0 (Windows NT 10.0; Win64; x64) AppleWebKit/537.36 (KHTML, like Gecko) Chrome/92.0.4515.131 Safari/537.36",WebKit,Chrome,92.0.4515.131,Windows,10.0,5f461dd6c139dd6b46c7596cbd57cd79
231,1,"""","""","""","""","""",sampler,55,114040,0.0-6.0-49.0,"""","""","""","""","""","""","""","""","""","""","""","""","2021-08-17 18:04:35",206.47.105.162,"Mozilla/5.0 (Windows NT 10.0; Win64; x64) AppleWebKit/537.36 (KHTML, like Gecko) Chrome/92.0.4515.131 Safari/537.36",WebKit,Chrome,92.0.4515.131,Windows,10.0,5f461dd6c139dd6b46c7596cbd57cd79
231,1,"""","""","""","""","""",sampler,56,114040,0.0-6.0-50.0,"""","""","""","""","""","""","""","""","""","""","""","""","2021-08-17 18:04:35",206.47.105.162,"Mozilla/5.0 (Windows NT 10.0; Win64; x64) AppleWebKit/537.36 (KHTML, like Gecko) Chrome/92.0.4515.131 Safari/537.36",WebKit,Chrome,92.0.4515.131,Windows,10.0,5f461dd6c139dd6b46c7596cbd57cd79
231,1,"""","""","""","""","""",sampler,57,114041,0.0-6.0-51.0,"""","""","""","""","""","""","""","""","""","""","""","""","2021-08-17 18:04:35",206.47.105.162,"Mozilla/5.0 (Windows NT 10.0; Win64; x64) AppleWebKit/537.36 (KHTML, like Gecko) Chrome/92.0.4515.131 Safari/537.36",WebKit,Chrome,92.0.4515.131,Windows,10.0,5f461dd6c139dd6b46c7596cbd57cd79
231,1,"""","""","""","""","""",sampler,58,114041,0.0-6.0-52.0,"""","""","""","""","""","""","""","""","""","""","""","""","2021-08-17 18:04:35",206.47.105.162,"Mozilla/5.0 (Windows NT 10.0; Win64; x64) AppleWebKit/537.36 (KHTML, like Gecko) Chrome/92.0.4515.131 Safari/537.36",WebKit,Chrome,92.0.4515.131,Windows,10.0,5f461dd6c139dd6b46c7596cbd57cd79
231,1,"""","""","""","""","""",sampler,59,114041,0.0-6.0-53.0,"""","""","""","""","""","""","""","""","""","""","""","""","2021-08-17 18:04:35",206.47.105.162,"Mozilla/5.0 (Windows NT 10.0; Win64; x64) AppleWebKit/537.36 (KHTML, like Gecko) Chrome/92.0.4515.131 Safari/537.36",WebKit,Chrome,92.0.4515.131,Windows,10.0,5f461dd6c139dd6b46c7596cbd57cd79
231,1,"""","""","""","""","""",sampler,60,114041,0.0-6.0-54.0,"""","""","""","""","""","""","""","""","""","""","""","""","2021-08-17 18:04:35",206.47.105.162,"Mozilla/5.0 (Windows NT 10.0; Win64; x64) AppleWebKit/537.36 (KHTML, like Gecko) Chrome/92.0.4515.131 Safari/537.36",WebKit,Chrome,92.0.4515.131,Windows,10.0,5f461dd6c139dd6b46c7596cbd57cd79
231,1,"""","""","""","""","""",sampler,61,114041,0.0-6.0-55.0,"""","""","""","""","""","""","""","""","""","""","""","""","2021-08-17 18:04:35",206.47.105.162,"Mozilla/5.0 (Windows NT 10.0; Win64; x64) AppleWebKit/537.36 (KHTML, like Gecko) Chrome/92.0.4515.131 Safari/537.36",WebKit,Chrome,92.0.4515.131,Windows,10.0,5f461dd6c139dd6b46c7596cbd57cd79
231,1,"""","""","""","""","""",sampler,62,114041,0.0-6.0-56.0,"""","""","""","""","""","""","""","""","""","""","""","""","2021-08-17 18:04:35",206.47.105.162,"Mozilla/5.0 (Windows NT 10.0; Win64; x64) AppleWebKit/537.36 (KHTML, like Gecko) Chrome/92.0.4515.131 Safari/537.36",WebKit,Chrome,92.0.4515.131,Windows,10.0,5f461dd6c139dd6b46c7596cbd57cd79
231,1,"""","""","""","""","""",sampler,63,114041,0.0-6.0-57.0,"""","""","""","""","""","""","""","""","""","""","""","""","2021-08-17 18:04:35",206.47.105.162,"Mozilla/5.0 (Windows NT 10.0; Win64; x64) AppleWebKit/537.36 (KHTML, like Gecko) Chrome/92.0.4515.131 Safari/537.36",WebKit,Chrome,92.0.4515.131,Windows,10.0,5f461dd6c139dd6b46c7596cbd57cd79
231,1,"""","""","""","""","""",sampler,64,114041,0.0-6.0-58.0,"""","""","""","""","""","""","""","""","""","""","""","""","2021-08-17 18:04:35",206.47.105.162,"Mozilla/5.0 (Windows NT 10.0; Win64; x64) AppleWebKit/537.36 (KHTML, like Gecko) Chrome/92.0.4515.131 Safari/537.36",WebKit,Chrome,92.0.4515.131,Windows,10.0,5f461dd6c139dd6b46c7596cbd57cd79
231,1,"""","""","""","""","""",sampler,65,114041,0.0-6.0-59.0,"""","""","""","""","""","""","""","""","""","""","""","""","2021-08-17 18:04:35",206.47.105.162,"Mozilla/5.0 (Windows NT 10.0; Win64; x64) AppleWebKit/537.36 (KHTML, like Gecko) Chrome/92.0.4515.131 Safari/537.36",WebKit,Chrome,92.0.4515.131,Windows,10.0,5f461dd6c139dd6b46c7596cbd57cd79
231,1,"""","""","""","""","""",sampler,66,114041,0.0-6.0-60.0,"""","""","""","""","""","""","""","""","""","""","""","""","2021-08-17 18:04:35",206.47.105.162,"Mozilla/5.0 (Windows NT 10.0; Win64; x64) AppleWebKit/537.36 (KHTML, like Gecko) Chrome/92.0.4515.131 Safari/537.36",WebKit,Chrome,92.0.4515.131,Windows,10.0,5f461dd6c139dd6b46c7596cbd57cd79
231,1,"""","""","""","""","""",sampler,67,114041,0.0-6.0-61.0,"""","""","""","""","""","""","""","""","""","""","""","""","2021-08-17 18:04:35",206.47.105.162,"Mozilla/5.0 (Windows NT 10.0; Win64; x64) AppleWebKit/537.36 (KHTML, like Gecko) Chrome/92.0.4515.131 Safari/537.36",WebKit,Chrome,92.0.4515.131,Windows,10.0,5f461dd6c139dd6b46c7596cbd57cd79
231,1,"""","""","""","""","""",sampler,68,114042,0.0-6.0-62.0,"""","""","""","""","""","""","""","""","""","""","""","""","2021-08-17 18:04:35",206.47.105.162,"Mozilla/5.0 (Windows NT 10.0; Win64; x64) AppleWebKit/537.36 (KHTML, like Gecko) Chrome/92.0.4515.131 Safari/537.36",WebKit,Chrome,92.0.4515.131,Windows,10.0,5f461dd6c139dd6b46c7596cbd57cd79
231,1,"""","""","""","""","""",sampler,69,114042,0.0-6.0-63.0,"""","""","""","""","""","""","""","""","""","""","""","""","2021-08-17 18:04:35",206.47.105.162,"Mozilla/5.0 (Windows NT 10.0; Win64; x64) AppleWebKit/537.36 (KHTML, like Gecko) Chrome/92.0.4515.131 Safari/537.36",WebKit,Chrome,92.0.4515.131,Windows,10.0,5f461dd6c139dd6b46c7596cbd57cd79
231,1,"""","""","""","""","""",sampler,70,114043,0.0-6.0-64.0,"""","""","""","""","""","""","""","""","""","""","""","""","2021-08-17 18:04:35",206.47.105.162,"Mozilla/5.0 (Windows NT 10.0; Win64; x64) AppleWebKit/537.36 (KHTML, like Gecko) Chrome/92.0.4515.131 Safari/537.36",WebKit,Chrome,92.0.4515.131,Windows,10.0,5f461dd6c139dd6b46c7596cbd57cd79
231,1,"""","""","""","""","""",sampler,71,114043,0.0-6.0-65.0,"""","""","""","""","""","""","""","""","""","""","""","""","2021-08-17 18:04:35",206.47.105.162,"Mozilla/5.0 (Windows NT 10.0; Win64; x64) AppleWebKit/537.36 (KHTML, like Gecko) Chrome/92.0.4515.131 Safari/537.36",WebKit,Chrome,92.0.4515.131,Windows,10.0,5f461dd6c139dd6b46c7596cbd57cd79
231,1,"""","""","""","""","""",sampler,72,114043,0.0-6.0-66.0,"""","""","""","""","""","""","""","""","""","""","""","""","2021-08-17 18:04:35",206.47.105.162,"Mozilla/5.0 (Windows NT 10.0; Win64; x64) AppleWebKit/537.36 (KHTML, like Gecko) Chrome/92.0.4515.131 Safari/537.36",WebKit,Chrome,92.0.4515.131,Windows,10.0,5f461dd6c139dd6b46c7596cbd57cd79
231,1,"""","""","""","""","""",sampler,73,114043,0.0-6.0-67.0,"""","""","""","""","""","""","""","""","""","""","""","""","2021-08-17 18:04:35",206.47.105.162,"Mozilla/5.0 (Windows NT 10.0; Win64; x64) AppleWebKit/537.36 (KHTML, like Gecko) Chrome/92.0.4515.131 Safari/537.36",WebKit,Chrome,92.0.4515.131,Windows,10.0,5f461dd6c139dd6b46c7596cbd57cd79
231,1,"""","""","""","""","""",sampler,74,114043,0.0-6.0-68.0,"""","""","""","""","""","""","""","""","""","""","""","""","2021-08-17 18:04:35",206.47.105.162,"Mozilla/5.0 (Windows NT 10.0; Win64; x64) AppleWebKit/537.36 (KHTML, like Gecko) Chrome/92.0.4515.131 Safari/537.36",WebKit,Chrome,92.0.4515.131,Windows,10.0,5f461dd6c139dd6b46c7596cbd57cd79
231,1,"""","""","""","""","""",sampler,75,114043,0.0-6.0-69.0,"""","""","""","""","""","""","""","""","""","""","""","""","2021-08-17 18:04:35",206.47.105.162,"Mozilla/5.0 (Windows NT 10.0; Win64; x64) AppleWebKit/537.36 (KHTML, like Gecko) Chrome/92.0.4515.131 Safari/537.36",WebKit,Chrome,92.0.4515.131,Windows,10.0,5f461dd6c139dd6b46c7596cbd57cd79
231,1,"""","""","""","""","""",sampler,76,114043,0.0-6.0-70.0,"""","""","""","""","""","""","""","""","""","""","""","""","2021-08-17 18:04:35",206.47.105.162,"Mozilla/5.0 (Windows NT 10.0; Win64; x64) AppleWebKit/537.36 (KHTML, like Gecko) Chrome/92.0.4515.131 Safari/537.36",WebKit,Chrome,92.0.4515.131,Windows,10.0,5f461dd6c139dd6b46c7596cbd57cd79
231,1,"""","""","""","""","""",sampler,77,114043,0.0-6.0-71.0,"""","""","""","""","""","""","""","""","""","""","""","""","2021-08-17 18:04:35",206.47.105.162,"Mozilla/5.0 (Windows NT 10.0; Win64; x64) AppleWebKit/537.36 (KHTML, like Gecko) Chrome/92.0.4515.131 Safari/537.36",WebKit,Chrome,92.0.4515.131,Windows,10.0,5f461dd6c139dd6b46c7596cbd57cd79
231,1,"""","""","""","""","""",sampler,78,114043,0.0-6.0-72.0,"""","""","""","""","""","""","""","""","""","""","""","""","2021-08-17 18:04:35",206.47.105.162,"Mozilla/5.0 (Windows NT 10.0; Win64; x64) AppleWebKit/537.36 (KHTML, like Gecko) Chrome/92.0.4515.131 Safari/537.36",WebKit,Chrome,92.0.4515.131,Windows,10.0,5f461dd6c139dd6b46c7596cbd57cd79
231,1,"""","""","""","""","""",sampler,79,114044,0.0-6.0-73.0,"""","""","""","""","""","""","""","""","""","""","""","""","2021-08-17 18:04:35",206.47.105.162,"Mozilla/5.0 (Windows NT 10.0; Win64; x64) AppleWebKit/537.36 (KHTML, like Gecko) Chrome/92.0.4515.131 Safari/537.36",WebKit,Chrome,92.0.4515.131,Windows,10.0,5f461dd6c139dd6b46c7596cbd57cd79
231,1,"""","""","""","""","""",sampler,80,114044,0.0-6.0-74.0,"""","""","""","""","""","""","""","""","""","""","""","""","2021-08-17 18:04:35",206.47.105.162,"Mozilla/5.0 (Windows NT 10.0; Win64; x64) AppleWebKit/537.36 (KHTML, like Gecko) Chrome/92.0.4515.131 Safari/537.36",WebKit,Chrome,92.0.4515.131,Windows,10.0,5f461dd6c139dd6b46c7596cbd57cd79
231,1,"""","""","""","""","""",sampler,81,114044,0.0-6.0-75.0,"""","""","""","""","""","""","""","""","""","""","""","""","2021-08-17 18:04:35",206.47.105.162,"Mozilla/5.0 (Windows NT 10.0; Win64; x64) AppleWebKit/537.36 (KHTML, like Gecko) Chrome/92.0.4515.131 Safari/537.36",WebKit,Chrome,92.0.4515.131,Windows,10.0,5f461dd6c139dd6b46c7596cbd57cd79
231,1,"""","""","""","""","""",sampler,82,114044,0.0-6.0-76.0,"""","""","""","""","""","""","""","""","""","""","""","""","2021-08-17 18:04:35",206.47.105.162,"Mozilla/5.0 (Windows NT 10.0; Win64; x64) AppleWebKit/537.36 (KHTML, like Gecko) Chrome/92.0.4515.131 Safari/537.36",WebKit,Chrome,92.0.4515.131,Windows,10.0,5f461dd6c139dd6b46c7596cbd57cd79
231,1,"""","""","""","""","""",sampler,83,114045,0.0-6.0-77.0,"""","""","""","""","""","""","""","""","""","""","""","""","2021-08-17 18:04:35",206.47.105.162,"Mozilla/5.0 (Windows NT 10.0; Win64; x64) AppleWebKit/537.36 (KHTML, like Gecko) Chrome/92.0.4515.131 Safari/537.36",WebKit,Chrome,92.0.4515.131,Windows,10.0,5f461dd6c139dd6b46c7596cbd57cd79
231,1,"""","""","""","""","""",sampler,84,114045,0.0-6.0-78.0,"""","""","""","""","""","""","""","""","""","""","""","""","2021-08-17 18:04:35",206.47.105.162,"Mozilla/5.0 (Windows NT 10.0; Win64; x64) AppleWebKit/537.36 (KHTML, like Gecko) Chrome/92.0.4515.131 Safari/537.36",WebKit,Chrome,92.0.4515.131,Windows,10.0,5f461dd6c139dd6b46c7596cbd57cd79
231,1,"""","""","""","""","""",sampler,85,114045,0.0-6.0-79.0,"""","""","""","""","""","""","""","""","""","""","""","""","2021-08-17 18:04:35",206.47.105.162,"Mozilla/5.0 (Windows NT 10.0; Win64; x64) AppleWebKit/537.36 (KHTML, like Gecko) Chrome/92.0.4515.131 Safari/537.36",WebKit,Chrome,92.0.4515.131,Windows,10.0,5f461dd6c139dd6b46c7596cbd57cd79
231,1,"""","""","""","""","""",sampler,86,114045,0.0-6.0-80.0,"""","""","""","""","""","""","""","""","""","""","""","""","2021-08-17 18:04:35",206.47.105.162,"Mozilla/5.0 (Windows NT 10.0; Win64; x64) AppleWebKit/537.36 (KHTML, like Gecko) Chrome/92.0.4515.131 Safari/537.36",WebKit,Chrome,92.0.4515.131,Windows,10.0,5f461dd6c139dd6b46c7596cbd57cd79
231,1,"""","""","""","""","""",sampler,87,114045,0.0-6.0-81.0,"""","""","""","""","""","""","""","""","""","""","""","""","2021-08-17 18:04:35",206.47.105.162,"Mozilla/5.0 (Windows NT 10.0; Win64; x64) AppleWebKit/537.36 (KHTML, like Gecko) Chrome/92.0.4515.131 Safari/537.36",WebKit,Chrome,92.0.4515.131,Windows,10.0,5f461dd6c139dd6b46c7596cbd57cd79
231,1,"""","""","""","""","""",sampler,88,114045,0.0-6.0-82.0,"""","""","""","""","""","""","""","""","""","""","""","""","2021-08-17 18:04:35",206.47.105.162,"Mozilla/5.0 (Windows NT 10.0; Win64; x64) AppleWebKit/537.36 (KHTML, like Gecko) Chrome/92.0.4515.131 Safari/537.36",WebKit,Chrome,92.0.4515.131,Windows,10.0,5f461dd6c139dd6b46c7596cbd57cd79
231,1,"""","""","""","""","""",sampler,89,114046,0.0-6.0-83.0,"""","""","""","""","""","""","""","""","""","""","""","""","2021-08-17 18:04:35",206.47.105.162,"Mozilla/5.0 (Windows NT 10.0; Win64; x64) AppleWebKit/537.36 (KHTML, like Gecko) Chrome/92.0.4515.131 Safari/537.36",WebKit,Chrome,92.0.4515.131,Windows,10.0,5f461dd6c139dd6b46c7596cbd57cd79
231,1,"""","""","""","""","""",sampler,90,114046,0.0-6.0-84.0,"""","""","""","""","""","""","""","""","""","""","""","""","2021-08-17 18:04:35",206.47.105.162,"Mozilla/5.0 (Windows NT 10.0; Win64; x64) AppleWebKit/537.36 (KHTML, like Gecko) Chrome/92.0.4515.131 Safari/537.36",WebKit,Chrome,92.0.4515.131,Windows,10.0,5f461dd6c139dd6b46c7596cbd57cd79
231,1,"""","""","""","""","""",sampler,91,114046,0.0-6.0-85.0,"""","""","""","""","""","""","""","""","""","""","""","""","2021-08-17 18:04:35",206.47.105.162,"Mozilla/5.0 (Windows NT 10.0; Win64; x64) AppleWebKit/537.36 (KHTML, like Gecko) Chrome/92.0.4515.131 Safari/537.36",WebKit,Chrome,92.0.4515.131,Windows,10.0,5f461dd6c139dd6b46c7596cbd57cd79
231,1,"""","""","""","""","""",sampler,92,114046,0.0-6.0-86.0,"""","""","""","""","""","""","""","""","""","""","""","""","2021-08-17 18:04:35",206.47.105.162,"Mozilla/5.0 (Windows NT 10.0; Win64; x64) AppleWebKit/537.36 (KHTML, like Gecko) Chrome/92.0.4515.131 Safari/537.36",WebKit,Chrome,92.0.4515.131,Windows,10.0,5f461dd6c139dd6b46c7596cbd57cd79
231,1,"""","""","""","""","""",sampler,93,114046,0.0-6.0-87.0,"""","""","""","""","""","""","""","""","""","""","""","""","2021-08-17 18:04:35",206.47.105.162,"Mozilla/5.0 (Windows NT 10.0; Win64; x64) AppleWebKit/537.36 (KHTML, like Gecko) Chrome/92.0.4515.131 Safari/537.36",WebKit,Chrome,92.0.4515.131,Windows,10.0,5f461dd6c139dd6b46c7596cbd57cd79
231,1,"""","""","""","""","""",sampler,94,114046,0.0-6.0-88.0,"""","""","""","""","""","""","""","""","""","""","""","""","2021-08-17 18:04:35",206.47.105.162,"Mozilla/5.0 (Windows NT 10.0; Win64; x64) AppleWebKit/537.36 (KHTML, like Gecko) Chrome/92.0.4515.131 Safari/537.36",WebKit,Chrome,92.0.4515.131,Windows,10.0,5f461dd6c139dd6b46c7596cbd57cd79
231,1,"""","""","""","""","""",sampler,95,114046,0.0-6.0-89.0,"""","""","""","""","""","""","""","""","""","""","""","""","2021-08-17 18:04:35",206.47.105.162,"Mozilla/5.0 (Windows NT 10.0; Win64; x64) AppleWebKit/537.36 (KHTML, like Gecko) Chrome/92.0.4515.131 Safari/537.36",WebKit,Chrome,92.0.4515.131,Windows,10.0,5f461dd6c139dd6b46c7596cbd57cd79
231,1,"""","""","""","""","""",sampler,96,114046,0.0-6.0-90.0,"""","""","""","""","""","""","""","""","""","""","""","""","2021-08-17 18:04:35",206.47.105.162,"Mozilla/5.0 (Windows NT 10.0; Win64; x64) AppleWebKit/537.36 (KHTML, like Gecko) Chrome/92.0.4515.131 Safari/537.36",WebKit,Chrome,92.0.4515.131,Windows,10.0,5f461dd6c139dd6b46c7596cbd57cd79
231,1,"""","""","""","""","""",sampler,97,114046,0.0-6.0-91.0,"""","""","""","""","""","""","""","""","""","""","""","""","2021-08-17 18:04:35",206.47.105.162,"Mozilla/5.0 (Windows NT 10.0; Win64; x64) AppleWebKit/537.36 (KHTML, like Gecko) Chrome/92.0.4515.131 Safari/537.36",WebKit,Chrome,92.0.4515.131,Windows,10.0,5f461dd6c139dd6b46c7596cbd57cd79
231,1,"""","""","""","""","""",sampler,98,114046,0.0-6.0-92.0,"""","""","""","""","""","""","""","""","""","""","""","""","2021-08-17 18:04:35",206.47.105.162,"Mozilla/5.0 (Windows NT 10.0; Win64; x64) AppleWebKit/537.36 (KHTML, like Gecko) Chrome/92.0.4515.131 Safari/537.36",WebKit,Chrome,92.0.4515.131,Windows,10.0,5f461dd6c139dd6b46c7596cbd57cd79
231,1,"""","""","""","""","""",sampler,99,114047,0.0-6.0-93.0,"""","""","""","""","""","""","""","""","""","""","""","""","2021-08-17 18:04:35",206.47.105.162,"Mozilla/5.0 (Windows NT 10.0; Win64; x64) AppleWebKit/537.36 (KHTML, like Gecko) Chrome/92.0.4515.131 Safari/537.36",WebKit,Chrome,92.0.4515.131,Windows,10.0,5f461dd6c139dd6b46c7596cbd57cd79
231,1,"""","""","""","""","""",sampler,100,114047,0.0-6.0-94.0,"""","""","""","""","""","""","""","""","""","""","""","""","2021-08-17 18:04:35",206.47.105.162,"Mozilla/5.0 (Windows NT 10.0; Win64; x64) AppleWebKit/537.36 (KHTML, like Gecko) Chrome/92.0.4515.131 Safari/537.36",WebKit,Chrome,92.0.4515.131,Windows,10.0,5f461dd6c139dd6b46c7596cbd57cd79
231,1,"""","""","""","""","""",sampler,101,114047,0.0-6.0-95.0,"""","""","""","""","""","""","""","""","""","""","""","""","2021-08-17 18:04:35",206.47.105.162,"Mozilla/5.0 (Windows NT 10.0; Win64; x64) AppleWebKit/537.36 (KHTML, like Gecko) Chrome/92.0.4515.131 Safari/537.36",WebKit,Chrome,92.0.4515.131,Windows,10.0,5f461dd6c139dd6b46c7596cbd57cd79
231,1,"""","""","""","""","""",sampler,102,114047,0.0-6.0-96.0,"""","""","""","""","""","""","""","""","""","""","""","""","2021-08-17 18:04:35",206.47.105.162,"Mozilla/5.0 (Windows NT 10.0; Win64; x64) AppleWebKit/537.36 (KHTML, like Gecko) Chrome/92.0.4515.131 Safari/537.36",WebKit,Chrome,92.0.4515.131,Windows,10.0,5f461dd6c139dd6b46c7596cbd57cd79
231,1,"""","""","""","""","""",sampler,103,114047,0.0-6.0-97.0,"""","""","""","""","""","""","""","""","""","""","""","""","2021-08-17 18:04:35",206.47.105.162,"Mozilla/5.0 (Windows NT 10.0; Win64; x64) AppleWebKit/537.36 (KHTML, like Gecko) Chrome/92.0.4515.131 Safari/537.36",WebKit,Chrome,92.0.4515.131,Windows,10.0,5f461dd6c139dd6b46c7596cbd57cd79
231,1,"""","""","""","""","""",sampler,104,114047,0.0-6.0-98.0,"""","""","""","""","""","""","""","""","""","""","""","""","2021-08-17 18:04:35",206.47.105.162,"Mozilla/5.0 (Windows NT 10.0; Win64; x64) AppleWebKit/537.36 (KHTML, like Gecko) Chrome/92.0.4515.131 Safari/537.36",WebKit,Chrome,92.0.4515.131,Windows,10.0,5f461dd6c139dd6b46c7596cbd57cd79
231,1,"""","""","""","""","""",sampler,105,114047,0.0-6.0-99.0,"""","""","""","""","""","""","""","""","""","""","""","""","2021-08-17 18:04:35",206.47.105.162,"Mozilla/5.0 (Windows NT 10.0; Win64; x64) AppleWebKit/537.36 (KHTML, like Gecko) Chrome/92.0.4515.131 Safari/537.36",WebKit,Chrome,92.0.4515.131,Windows,10.0,5f461dd6c139dd6b46c7596cbd57cd79
231,1,"""","""","""","""","""",sampler,106,114047,0.0-6.0-100.0,"""","""","""","""","""","""","""","""","""","""","""","""","2021-08-17 18:04:35",206.47.105.162,"Mozilla/5.0 (Windows NT 10.0; Win64; x64) AppleWebKit/537.36 (KHTML, like Gecko) Chrome/92.0.4515.131 Safari/537.36",WebKit,Chrome,92.0.4515.131,Windows,10.0,5f461dd6c139dd6b46c7596cbd57cd79
231,1,"""","""","""","""","""",sampler,107,114047,0.0-6.0-101.0,"""","""","""","""","""","""","""","""","""","""","""","""","2021-08-17 18:04:35",206.47.105.162,"Mozilla/5.0 (Windows NT 10.0; Win64; x64) AppleWebKit/537.36 (KHTML, like Gecko) Chrome/92.0.4515.131 Safari/537.36",WebKit,Chrome,92.0.4515.131,Windows,10.0,5f461dd6c139dd6b46c7596cbd57cd79
231,1,"""","""","""","""","""",sampler,108,114048,0.0-6.0-102.0,"""","""","""","""","""","""","""","""","""","""","""","""","2021-08-17 18:04:35",206.47.105.162,"Mozilla/5.0 (Windows NT 10.0; Win64; x64) AppleWebKit/537.36 (KHTML, like Gecko) Chrome/92.0.4515.131 Safari/537.36",WebKit,Chrome,92.0.4515.131,Windows,10.0,5f461dd6c139dd6b46c7596cbd57cd79
231,1,"""","""","""","""","""",sampler,109,114048,0.0-6.0-103.0,"""","""","""","""","""","""","""","""","""","""","""","""","2021-08-17 18:04:35",206.47.105.162,"Mozilla/5.0 (Windows NT 10.0; Win64; x64) AppleWebKit/537.36 (KHTML, like Gecko) Chrome/92.0.4515.131 Safari/537.36",WebKit,Chrome,92.0.4515.131,Windows,10.0,5f461dd6c139dd6b46c7596cbd57cd79
231,1,"""","""","""","""","""",sampler,110,114048,0.0-6.0-104.0,"""","""","""","""","""","""","""","""","""","""","""","""","2021-08-17 18:04:35",206.47.105.162,"Mozilla/5.0 (Windows NT 10.0; Win64; x64) AppleWebKit/537.36 (KHTML, like Gecko) Chrome/92.0.4515.131 Safari/537.36",WebKit,Chrome,92.0.4515.131,Windows,10.0,5f461dd6c139dd6b46c7596cbd57cd79
231,1,"""","""","""","""","""",sampler,111,114048,0.0-6.0-105.0,"""","""","""","""","""","""","""","""","""","""","""","""","2021-08-17 18:04:35",206.47.105.162,"Mozilla/5.0 (Windows NT 10.0; Win64; x64) AppleWebKit/537.36 (KHTML, like Gecko) Chrome/92.0.4515.131 Safari/537.36",WebKit,Chrome,92.0.4515.131,Windows,10.0,5f461dd6c139dd6b46c7596cbd57cd79
231,1,"""","""","""","""","""",sampler,112,114048,0.0-6.0-106.0,"""","""","""","""","""","""","""","""","""","""","""","""","2021-08-17 18:04:35",206.47.105.162,"Mozilla/5.0 (Windows NT 10.0; Win64; x64) AppleWebKit/537.36 (KHTML, like Gecko) Chrome/92.0.4515.131 Safari/537.36",WebKit,Chrome,92.0.4515.131,Windows,10.0,5f461dd6c139dd6b46c7596cbd57cd79
231,1,"""","""","""","""","""",sampler,113,114048,0.0-6.0-107.0,"""","""","""","""","""","""","""","""","""","""","""","""","2021-08-17 18:04:35",206.47.105.162,"Mozilla/5.0 (Windows NT 10.0; Win64; x64) AppleWebKit/537.36 (KHTML, like Gecko) Chrome/92.0.4515.131 Safari/537.36",WebKit,Chrome,92.0.4515.131,Windows,10.0,5f461dd6c139dd6b46c7596cbd57cd79
231,1,"""","""","""","""","""",sampler,114,114048,0.0-6.0-108.0,"""","""","""","""","""","""","""","""","""","""","""","""","2021-08-17 18:04:35",206.47.105.162,"Mozilla/5.0 (Windows NT 10.0; Win64; x64) AppleWebKit/537.36 (KHTML, like Gecko) Chrome/92.0.4515.131 Safari/537.36",WebKit,Chrome,92.0.4515.131,Windows,10.0,5f461dd6c139dd6b46c7596cbd57cd79
231,1,"""","""","""","""","""",sampler,115,114048,0.0-6.0-109.0,"""","""","""","""","""","""","""","""","""","""","""","""","2021-08-17 18:04:35",206.47.105.162,"Mozilla/5.0 (Windows NT 10.0; Win64; x64) AppleWebKit/537.36 (KHTML, like Gecko) Chrome/92.0.4515.131 Safari/537.36",WebKit,Chrome,92.0.4515.131,Windows,10.0,5f461dd6c139dd6b46c7596cbd57cd79
231,1,"""","""","""","""","""",sampler,116,114048,0.0-6.0-110.0,"""","""","""","""","""","""","""","""","""","""","""","""","2021-08-17 18:04:35",206.47.105.162,"Mozilla/5.0 (Windows NT 10.0; Win64; x64) AppleWebKit/537.36 (KHTML, like Gecko) Chrome/92.0.4515.131 Safari/537.36",WebKit,Chrome,92.0.4515.131,Windows,10.0,5f461dd6c139dd6b46c7596cbd57cd79
231,1,"""","""","""","""","""",sampler,117,114048,0.0-6.0-111.0,"""","""","""","""","""","""","""","""","""","""","""","""","2021-08-17 18:04:35",206.47.105.162,"Mozilla/5.0 (Windows NT 10.0; Win64; x64) AppleWebKit/537.36 (KHTML, like Gecko) Chrome/92.0.4515.131 Safari/537.36",WebKit,Chrome,92.0.4515.131,Windows,10.0,5f461dd6c139dd6b46c7596cbd57cd79
231,1,"""","""","""","""","""",sampler,118,114049,0.0-6.0-112.0,"""","""","""","""","""","""","""","""","""","""","""","""","2021-08-17 18:04:35",206.47.105.162,"Mozilla/5.0 (Windows NT 10.0; Win64; x64) AppleWebKit/537.36 (KHTML, like Gecko) Chrome/92.0.4515.131 Safari/537.36",WebKit,Chrome,92.0.4515.131,Windows,10.0,5f461dd6c139dd6b46c7596cbd57cd79
231,1,"""","""","""","""","""",sampler,119,114049,0.0-6.0-113.0,"""","""","""","""","""","""","""","""","""","""","""","""","2021-08-17 18:04:35",206.47.105.162,"Mozilla/5.0 (Windows NT 10.0; Win64; x64) AppleWebKit/537.36 (KHTML, like Gecko) Chrome/92.0.4515.131 Safari/537.36",WebKit,Chrome,92.0.4515.131,Windows,10.0,5f461dd6c139dd6b46c7596cbd57cd79
231,1,"""","""","""","""","""",sampler,120,114049,0.0-6.0-114.0,"""","""","""","""","""","""","""","""","""","""","""","""","2021-08-17 18:04:35",206.47.105.162,"Mozilla/5.0 (Windows NT 10.0; Win64; x64) AppleWebKit/537.36 (KHTML, like Gecko) Chrome/92.0.4515.131 Safari/537.36",WebKit,Chrome,92.0.4515.131,Windows,10.0,5f461dd6c139dd6b46c7596cbd57cd79
231,1,"""","""","""","""","""",sampler,121,114049,0.0-6.0-115.0,"""","""","""","""","""","""","""","""","""","""","""","""","2021-08-17 18:04:35",206.47.105.162,"Mozilla/5.0 (Windows NT 10.0; Win64; x64) AppleWebKit/537.36 (KHTML, like Gecko) Chrome/92.0.4515.131 Safari/537.36",WebKit,Chrome,92.0.4515.131,Windows,10.0,5f461dd6c139dd6b46c7596cbd57cd79
231,1,"""","""","""","""","""",sampler,122,114049,0.0-6.0-116.0,"""","""","""","""","""","""","""","""","""","""","""","""","2021-08-17 18:04:35",206.47.105.162,"Mozilla/5.0 (Windows NT 10.0; Win64; x64) AppleWebKit/537.36 (KHTML, like Gecko) Chrome/92.0.4515.131 Safari/537.36",WebKit,Chrome,92.0.4515.131,Windows,10.0,5f461dd6c139dd6b46c7596cbd57cd79
231,1,"""","""","""","""","""",sampler,123,114049,0.0-6.0-117.0,"""","""","""","""","""","""","""","""","""","""","""","""","2021-08-17 18:04:35",206.47.105.162,"Mozilla/5.0 (Windows NT 10.0; Win64; x64) AppleWebKit/537.36 (KHTML, like Gecko) Chrome/92.0.4515.131 Safari/537.36",WebKit,Chrome,92.0.4515.131,Windows,10.0,5f461dd6c139dd6b46c7596cbd57cd79
231,1,"""","""","""","""","""",sampler,124,114049,0.0-6.0-118.0,"""","""","""","""","""","""","""","""","""","""","""","""","2021-08-17 18:04:35",206.47.105.162,"Mozilla/5.0 (Windows NT 10.0; Win64; x64) AppleWebKit/537.36 (KHTML, like Gecko) Chrome/92.0.4515.131 Safari/537.36",WebKit,Chrome,92.0.4515.131,Windows,10.0,5f461dd6c139dd6b46c7596cbd57cd79
231,1,"""","""","""","""","""",sampler,125,114049,0.0-6.0-119.0,"""","""","""","""","""","""","""","""","""","""","""","""","2021-08-17 18:04:35",206.47.105.162,"Mozilla/5.0 (Windows NT 10.0; Win64; x64) AppleWebKit/537.36 (KHTML, like Gecko) Chrome/92.0.4515.131 Safari/537.36",WebKit,Chrome,92.0.4515.131,Windows,10.0,5f461dd6c139dd6b46c7596cbd57cd79
231,1,"""","""","""","""","""",sampler,126,114049,0.0-6.0-120.0,"""","""","""","""","""","""","""","""","""","""","""","""","2021-08-17 18:04:35",206.47.105.162,"Mozilla/5.0 (Windows NT 10.0; Win64; x64) AppleWebKit/537.36 (KHTML, like Gecko) Chrome/92.0.4515.131 Safari/537.36",WebKit,Chrome,92.0.4515.131,Windows,10.0,5f461dd6c139dd6b46c7596cbd57cd79
231,1,"""","""","""","""","""",sampler,127,114049,0.0-6.0-121.0,"""","""","""","""","""","""","""","""","""","""","""","""","2021-08-17 18:04:35",206.47.105.162,"Mozilla/5.0 (Windows NT 10.0; Win64; x64) AppleWebKit/537.36 (KHTML, like Gecko) Chrome/92.0.4515.131 Safari/537.36",WebKit,Chrome,92.0.4515.131,Windows,10.0,5f461dd6c139dd6b46c7596cbd57cd79
231,1,"""","""","""","""","""",sampler,128,114050,0.0-6.0-122.0,"""","""","""","""","""","""","""","""","""","""","""","""","2021-08-17 18:04:35",206.47.105.162,"Mozilla/5.0 (Windows NT 10.0; Win64; x64) AppleWebKit/537.36 (KHTML, like Gecko) Chrome/92.0.4515.131 Safari/537.36",WebKit,Chrome,92.0.4515.131,Windows,10.0,5f461dd6c139dd6b46c7596cbd57cd79
231,1,"""","""","""","""","""",sampler,129,114050,0.0-6.0-123.0,"""","""","""","""","""","""","""","""","""","""","""","""","2021-08-17 18:04:35",206.47.105.162,"Mozilla/5.0 (Windows NT 10.0; Win64; x64) AppleWebKit/537.36 (KHTML, like Gecko) Chrome/92.0.4515.131 Safari/537.36",WebKit,Chrome,92.0.4515.131,Windows,10.0,5f461dd6c139dd6b46c7596cbd57cd79
231,1,"""","""","""","""","""",sampler,130,114050,0.0-6.0-124.0,"""","""","""","""","""","""","""","""","""","""","""","""","2021-08-17 18:04:35",206.47.105.162,"Mozilla/5.0 (Windows NT 10.0; Win64; x64) AppleWebKit/537.36 (KHTML, like Gecko) Chrome/92.0.4515.131 Safari/537.36",WebKit,Chrome,92.0.4515.131,Windows,10.0,5f461dd6c139dd6b46c7596cbd57cd79
231,1,"""","""","""","""","""",sampler,131,114050,0.0-6.0-125.0,"""","""","""","""","""","""","""","""","""","""","""","""","2021-08-17 18:04:35",206.47.105.162,"Mozilla/5.0 (Windows NT 10.0; Win64; x64) AppleWebKit/537.36 (KHTML, like Gecko) Chrome/92.0.4515.131 Safari/537.36",WebKit,Chrome,92.0.4515.131,Windows,10.0,5f461dd6c139dd6b46c7596cbd57cd79
231,1,"""","""","""","""","""",sampler,132,114050,0.0-6.0-126.0,"""","""","""","""","""","""","""","""","""","""","""","""","2021-08-17 18:04:35",206.47.105.162,"Mozilla/5.0 (Windows NT 10.0; Win64; x64) AppleWebKit/537.36 (KHTML, like Gecko) Chrome/92.0.4515.131 Safari/537.36",WebKit,Chrome,92.0.4515.131,Windows,10.0,5f461dd6c139dd6b46c7596cbd57cd79
231,1,"""","""","""","""","""",sampler,133,114050,0.0-6.0-127.0,"""","""","""","""","""","""","""","""","""","""","""","""","2021-08-17 18:04:35",206.47.105.162,"Mozilla/5.0 (Windows NT 10.0; Win64; x64) AppleWebKit/537.36 (KHTML, like Gecko) Chrome/92.0.4515.131 Safari/537.36",WebKit,Chrome,92.0.4515.131,Windows,10.0,5f461dd6c139dd6b46c7596cbd57cd79
231,1,"""","""","""","""","""",sampler,134,114050,0.0-6.0-128.0,"""","""","""","""","""","""","""","""","""","""","""","""","2021-08-17 18:04:35",206.47.105.162,"Mozilla/5.0 (Windows NT 10.0; Win64; x64) AppleWebKit/537.36 (KHTML, like Gecko) Chrome/92.0.4515.131 Safari/537.36",WebKit,Chrome,92.0.4515.131,Windows,10.0,5f461dd6c139dd6b46c7596cbd57cd79
231,1,"""","""","""","""","""",sampler,135,114050,0.0-6.0-129.0,"""","""","""","""","""","""","""","""","""","""","""","""","2021-08-17 18:04:35",206.47.105.162,"Mozilla/5.0 (Windows NT 10.0; Win64; x64) AppleWebKit/537.36 (KHTML, like Gecko) Chrome/92.0.4515.131 Safari/537.36",WebKit,Chrome,92.0.4515.131,Windows,10.0,5f461dd6c139dd6b46c7596cbd57cd79
231,1,"""","""","""","""","""",sampler,136,114050,0.0-6.0-130.0,"""","""","""","""","""","""","""","""","""","""","""","""","2021-08-17 18:04:35",206.47.105.162,"Mozilla/5.0 (Windows NT 10.0; Win64; x64) AppleWebKit/537.36 (KHTML, like Gecko) Chrome/92.0.4515.131 Safari/537.36",WebKit,Chrome,92.0.4515.131,Windows,10.0,5f461dd6c139dd6b46c7596cbd57cd79
231,1,"""","""","""","""","""",sampler,137,114050,0.0-6.0-131.0,"""","""","""","""","""","""","""","""","""","""","""","""","2021-08-17 18:04:35",206.47.105.162,"Mozilla/5.0 (Windows NT 10.0; Win64; x64) AppleWebKit/537.36 (KHTML, like Gecko) Chrome/92.0.4515.131 Safari/537.36",WebKit,Chrome,92.0.4515.131,Windows,10.0,5f461dd6c139dd6b46c7596cbd57cd79
231,1,"""","""","""","""","""",sampler,138,114050,0.0-6.0-132.0,"""","""","""","""","""","""","""","""","""","""","""","""","2021-08-17 18:04:35",206.47.105.162,"Mozilla/5.0 (Windows NT 10.0; Win64; x64) AppleWebKit/537.36 (KHTML, like Gecko) Chrome/92.0.4515.131 Safari/537.36",WebKit,Chrome,92.0.4515.131,Windows,10.0,5f461dd6c139dd6b46c7596cbd57cd79
231,1,"""","""","""","""","""",sampler,139,114050,0.0-6.0-133.0,"""","""","""","""","""","""","""","""","""","""","""","""","2021-08-17 18:04:35",206.47.105.162,"Mozilla/5.0 (Windows NT 10.0; Win64; x64) AppleWebKit/537.36 (KHTML, like Gecko) Chrome/92.0.4515.131 Safari/537.36",WebKit,Chrome,92.0.4515.131,Windows,10.0,5f461dd6c139dd6b46c7596cbd57cd79
231,1,"""","""","""","""","""",sampler,140,114050,0.0-6.0-134.0,"""","""","""","""","""","""","""","""","""","""","""","""","2021-08-17 18:04:35",206.47.105.162,"Mozilla/5.0 (Windows NT 10.0; Win64; x64) AppleWebKit/537.36 (KHTML, like Gecko) Chrome/92.0.4515.131 Safari/537.36",WebKit,Chrome,92.0.4515.131,Windows,10.0,5f461dd6c139dd6b46c7596cbd57cd79
231,1,"""","""","""","""","""",sampler,141,114051,0.0-6.0-135.0,"""","""","""","""","""","""","""","""","""","""","""","""","2021-08-17 18:04:35",206.47.105.162,"Mozilla/5.0 (Windows NT 10.0; Win64; x64) AppleWebKit/537.36 (KHTML, like Gecko) Chrome/92.0.4515.131 Safari/537.36",WebKit,Chrome,92.0.4515.131,Windows,10.0,5f461dd6c139dd6b46c7596cbd57cd79
231,1,"""","""","""","""","""",sampler,142,114051,0.0-6.0-136.0,"""","""","""","""","""","""","""","""","""","""","""","""","2021-08-17 18:04:35",206.47.105.162,"Mozilla/5.0 (Windows NT 10.0; Win64; x64) AppleWebKit/537.36 (KHTML, like Gecko) Chrome/92.0.4515.131 Safari/537.36",WebKit,Chrome,92.0.4515.131,Windows,10.0,5f461dd6c139dd6b46c7596cbd57cd79
231,1,"""","""","""","""","""",sampler,143,114051,0.0-6.0-137.0,"""","""","""","""","""","""","""","""","""","""","""","""","2021-08-17 18:04:35",206.47.105.162,"Mozilla/5.0 (Windows NT 10.0; Win64; x64) AppleWebKit/537.36 (KHTML, like Gecko) Chrome/92.0.4515.131 Safari/537.36",WebKit,Chrome,92.0.4515.131,Windows,10.0,5f461dd6c139dd6b46c7596cbd57cd79
231,1,"""","""","""","""","""",sampler,144,114051,0.0-6.0-138.0,"""","""","""","""","""","""","""","""","""","""","""","""","2021-08-17 18:04:35",206.47.105.162,"Mozilla/5.0 (Windows NT 10.0; Win64; x64) AppleWebKit/537.36 (KHTML, like Gecko) Chrome/92.0.4515.131 Safari/537.36",WebKit,Chrome,92.0.4515.131,Windows,10.0,5f461dd6c139dd6b46c7596cbd57cd79
231,1,"""","""","""","""","""",sampler,145,114051,0.0-6.0-139.0,"""","""","""","""","""","""","""","""","""","""","""","""","2021-08-17 18:04:35",206.47.105.162,"Mozilla/5.0 (Windows NT 10.0; Win64; x64) AppleWebKit/537.36 (KHTML, like Gecko) Chrome/92.0.4515.131 Safari/537.36",WebKit,Chrome,92.0.4515.131,Windows,10.0,5f461dd6c139dd6b46c7596cbd57cd79
231,1,"""","""","""","""","""",sampler,146,114051,0.0-6.0-140.0,"""","""","""","""","""","""","""","""","""","""","""","""","2021-08-17 18:04:35",206.47.105.162,"Mozilla/5.0 (Windows NT 10.0; Win64; x64) AppleWebKit/537.36 (KHTML, like Gecko) Chrome/92.0.4515.131 Safari/537.36",WebKit,Chrome,92.0.4515.131,Windows,10.0,5f461dd6c139dd6b46c7596cbd57cd79
231,1,"""","""","""","""","""",sampler,147,114051,0.0-6.0-141.0,"""","""","""","""","""","""","""","""","""","""","""","""","2021-08-17 18:04:35",206.47.105.162,"Mozilla/5.0 (Windows NT 10.0; Win64; x64) AppleWebKit/537.36 (KHTML, like Gecko) Chrome/92.0.4515.131 Safari/537.36",WebKit,Chrome,92.0.4515.131,Windows,10.0,5f461dd6c139dd6b46c7596cbd57cd79
231,1,"""","""","""","""","""",sampler,148,114051,0.0-6.0-142.0,"""","""","""","""","""","""","""","""","""","""","""","""","2021-08-17 18:04:35",206.47.105.162,"Mozilla/5.0 (Windows NT 10.0; Win64; x64) AppleWebKit/537.36 (KHTML, like Gecko) Chrome/92.0.4515.131 Safari/537.36",WebKit,Chrome,92.0.4515.131,Windows,10.0,5f461dd6c139dd6b46c7596cbd57cd79
231,1,"""","""","""","""","""",sampler,149,114051,0.0-6.0-143.0,"""","""","""","""","""","""","""","""","""","""","""","""","2021-08-17 18:04:35",206.47.105.162,"Mozilla/5.0 (Windows NT 10.0; Win64; x64) AppleWebKit/537.36 (KHTML, like Gecko) Chrome/92.0.4515.131 Safari/537.36",WebKit,Chrome,92.0.4515.131,Windows,10.0,5f461dd6c139dd6b46c7596cbd57cd79
231,1,"""","""","""","""","""",sampler,150,114051,0.0-6.0-144.0,"""","""","""","""","""","""","""","""","""","""","""","""","2021-08-17 18:04:35",206.47.105.162,"Mozilla/5.0 (Windows NT 10.0; Win64; x64) AppleWebKit/537.36 (KHTML, like Gecko) Chrome/92.0.4515.131 Safari/537.36",WebKit,Chrome,92.0.4515.131,Windows,10.0,5f461dd6c139dd6b46c7596cbd57cd79
231,1,"""","""","""","""","""",sampler,151,114051,0.0-6.0-145.0,"""","""","""","""","""","""","""","""","""","""","""","""","2021-08-17 18:04:35",206.47.105.162,"Mozilla/5.0 (Windows NT 10.0; Win64; x64) AppleWebKit/537.36 (KHTML, like Gecko) Chrome/92.0.4515.131 Safari/537.36",WebKit,Chrome,92.0.4515.131,Windows,10.0,5f461dd6c139dd6b46c7596cbd57cd79
231,1,"""","""","""","""","""",sampler,152,114052,0.0-6.0-146.0,"""","""","""","""","""","""","""","""","""","""","""","""","2021-08-17 18:04:35",206.47.105.162,"Mozilla/5.0 (Windows NT 10.0; Win64; x64) AppleWebKit/537.36 (KHTML, like Gecko) Chrome/92.0.4515.131 Safari/537.36",WebKit,Chrome,92.0.4515.131,Windows,10.0,5f461dd6c139dd6b46c7596cbd57cd79
231,1,"""","""","""","""","""",sampler,153,114052,0.0-6.0-147.0,"""","""","""","""","""","""","""","""","""","""","""","""","2021-08-17 18:04:35",206.47.105.162,"Mozilla/5.0 (Windows NT 10.0; Win64; x64) AppleWebKit/537.36 (KHTML, like Gecko) Chrome/92.0.4515.131 Safari/537.36",WebKit,Chrome,92.0.4515.131,Windows,10.0,5f461dd6c139dd6b46c7596cbd57cd79
231,1,"""","""","""","""","""",sampler,154,114052,0.0-6.0-148.0,"""","""","""","""","""","""","""","""","""","""","""","""","2021-08-17 18:04:35",206.47.105.162,"Mozilla/5.0 (Windows NT 10.0; Win64; x64) AppleWebKit/537.36 (KHTML, like Gecko) Chrome/92.0.4515.131 Safari/537.36",WebKit,Chrome,92.0.4515.131,Windows,10.0,5f461dd6c139dd6b46c7596cbd57cd79
231,1,"""","""","""","""","""",sampler,155,114052,0.0-6.0-149.0,"""","""","""","""","""","""","""","""","""","""","""","""","2021-08-17 18:04:35",206.47.105.162,"Mozilla/5.0 (Windows NT 10.0; Win64; x64) AppleWebKit/537.36 (KHTML, like Gecko) Chrome/92.0.4515.131 Safari/537.36",WebKit,Chrome,92.0.4515.131,Windows,10.0,5f461dd6c139dd6b46c7596cbd57cd79
231,1,"""","""","""","""","""",sampler,156,114052,0.0-6.0-150.0,"""","""","""","""","""","""","""","""","""","""","""","""","2021-08-17 18:04:35",206.47.105.162,"Mozilla/5.0 (Windows NT 10.0; Win64; x64) AppleWebKit/537.36 (KHTML, like Gecko) Chrome/92.0.4515.131 Safari/537.36",WebKit,Chrome,92.0.4515.131,Windows,10.0,5f461dd6c139dd6b46c7596cbd57cd79
231,1,"""","""","""","""","""",sampler,157,114052,0.0-6.0-151.0,"""","""","""","""","""","""","""","""","""","""","""","""","2021-08-17 18:04:35",206.47.105.162,"Mozilla/5.0 (Windows NT 10.0; Win64; x64) AppleWebKit/537.36 (KHTML, like Gecko) Chrome/92.0.4515.131 Safari/537.36",WebKit,Chrome,92.0.4515.131,Windows,10.0,5f461dd6c139dd6b46c7596cbd57cd79
231,1,"""","""","""","""","""",sampler,158,114052,0.0-6.0-152.0,"""","""","""","""","""","""","""","""","""","""","""","""","2021-08-17 18:04:35",206.47.105.162,"Mozilla/5.0 (Windows NT 10.0; Win64; x64) AppleWebKit/537.36 (KHTML, like Gecko) Chrome/92.0.4515.131 Safari/537.36",WebKit,Chrome,92.0.4515.131,Windows,10.0,5f461dd6c139dd6b46c7596cbd57cd79
231,1,"""","""","""","""","""",sampler,159,114052,0.0-6.0-153.0,"""","""","""","""","""","""","""","""","""","""","""","""","2021-08-17 18:04:35",206.47.105.162,"Mozilla/5.0 (Windows NT 10.0; Win64; x64) AppleWebKit/537.36 (KHTML, like Gecko) Chrome/92.0.4515.131 Safari/537.36",WebKit,Chrome,92.0.4515.131,Windows,10.0,5f461dd6c139dd6b46c7596cbd57cd79
231,1,"""","""","""","""","""",sampler,160,114052,0.0-6.0-154.0,"""","""","""","""","""","""","""","""","""","""","""","""","2021-08-17 18:04:35",206.47.105.162,"Mozilla/5.0 (Windows NT 10.0; Win64; x64) AppleWebKit/537.36 (KHTML, like Gecko) Chrome/92.0.4515.131 Safari/537.36",WebKit,Chrome,92.0.4515.131,Windows,10.0,5f461dd6c139dd6b46c7596cbd57cd79
231,1,"""","""","""","""","""",sampler,161,114052,0.0-6.0-155.0,"""","""","""","""","""","""","""","""","""","""","""","""","2021-08-17 18:04:35",206.47.105.162,"Mozilla/5.0 (Windows NT 10.0; Win64; x64) AppleWebKit/537.36 (KHTML, like Gecko) Chrome/92.0.4515.131 Safari/537.36",WebKit,Chrome,92.0.4515.131,Windows,10.0,5f461dd6c139dd6b46c7596cbd57cd79
231,1,"""","""","""","""","""",sampler,162,114053,0.0-6.0-156.0,"""","""","""","""","""","""","""","""","""","""","""","""","2021-08-17 18:04:35",206.47.105.162,"Mozilla/5.0 (Windows NT 10.0; Win64; x64) AppleWebKit/537.36 (KHTML, like Gecko) Chrome/92.0.4515.131 Safari/537.36",WebKit,Chrome,92.0.4515.131,Windows,10.0,5f461dd6c139dd6b46c7596cbd57cd79
231,1,"""","""","""","""","""",sampler,163,114053,0.0-6.0-157.0,"""","""","""","""","""","""","""","""","""","""","""","""","2021-08-17 18:04:35",206.47.105.162,"Mozilla/5.0 (Windows NT 10.0; Win64; x64) AppleWebKit/537.36 (KHTML, like Gecko) Chrome/92.0.4515.131 Safari/537.36",WebKit,Chrome,92.0.4515.131,Windows,10.0,5f461dd6c139dd6b46c7596cbd57cd79
231,1,"""","""","""","""","""",sampler,164,114053,0.0-6.0-158.0,"""","""","""","""","""","""","""","""","""","""","""","""","2021-08-17 18:04:35",206.47.105.162,"Mozilla/5.0 (Windows NT 10.0; Win64; x64) AppleWebKit/537.36 (KHTML, like Gecko) Chrome/92.0.4515.131 Safari/537.36",WebKit,Chrome,92.0.4515.131,Windows,10.0,5f461dd6c139dd6b46c7596cbd57cd79
231,1,"""","""","""","""","""",sampler,165,114053,0.0-6.0-159.0,"""","""","""","""","""","""","""","""","""","""","""","""","2021-08-17 18:04:35",206.47.105.162,"Mozilla/5.0 (Windows NT 10.0; Win64; x64) AppleWebKit/537.36 (KHTML, like Gecko) Chrome/92.0.4515.131 Safari/537.36",WebKit,Chrome,92.0.4515.131,Windows,10.0,5f461dd6c139dd6b46c7596cbd57cd79
231,1,"""","""","""","""","""",sampler,166,114053,0.0-6.0-160.0,"""","""","""","""","""","""","""","""","""","""","""","""","2021-08-17 18:04:35",206.47.105.162,"Mozilla/5.0 (Windows NT 10.0; Win64; x64) AppleWebKit/537.36 (KHTML, like Gecko) Chrome/92.0.4515.131 Safari/537.36",WebKit,Chrome,92.0.4515.131,Windows,10.0,5f461dd6c139dd6b46c7596cbd57cd79
231,1,"""","""","""","""","""",sampler,167,114053,0.0-6.0-161.0,"""","""","""","""","""","""","""","""","""","""","""","""","2021-08-17 18:04:35",206.47.105.162,"Mozilla/5.0 (Windows NT 10.0; Win64; x64) AppleWebKit/537.36 (KHTML, like Gecko) Chrome/92.0.4515.131 Safari/537.36",WebKit,Chrome,92.0.4515.131,Windows,10.0,5f461dd6c139dd6b46c7596cbd57cd79
231,1,"""","""","""","""","""",sampler,168,114053,0.0-6.0-162.0,"""","""","""","""","""","""","""","""","""","""","""","""","2021-08-17 18:04:35",206.47.105.162,"Mozilla/5.0 (Windows NT 10.0; Win64; x64) AppleWebKit/537.36 (KHTML, like Gecko) Chrome/92.0.4515.131 Safari/537.36",WebKit,Chrome,92.0.4515.131,Windows,10.0,5f461dd6c139dd6b46c7596cbd57cd79
231,1,"""","""","""","""","""",sampler,169,114053,0.0-6.0-163.0,"""","""","""","""","""","""","""","""","""","""","""","""","2021-08-17 18:04:35",206.47.105.162,"Mozilla/5.0 (Windows NT 10.0; Win64; x64) AppleWebKit/537.36 (KHTML, like Gecko) Chrome/92.0.4515.131 Safari/537.36",WebKit,Chrome,92.0.4515.131,Windows,10.0,5f461dd6c139dd6b46c7596cbd57cd79
231,1,"""","""","""","""","""",sampler,170,114053,0.0-6.0-164.0,"""","""","""","""","""","""","""","""","""","""","""","""","2021-08-17 18:04:35",206.47.105.162,"Mozilla/5.0 (Windows NT 10.0; Win64; x64) AppleWebKit/537.36 (KHTML, like Gecko) Chrome/92.0.4515.131 Safari/537.36",WebKit,Chrome,92.0.4515.131,Windows,10.0,5f461dd6c139dd6b46c7596cbd57cd79
231,1,"""","""","""","""","""",sampler,171,114053,0.0-6.0-165.0,"""","""","""","""","""","""","""","""","""","""","""","""","2021-08-17 18:04:35",206.47.105.162,"Mozilla/5.0 (Windows NT 10.0; Win64; x64) AppleWebKit/537.36 (KHTML, like Gecko) Chrome/92.0.4515.131 Safari/537.36",WebKit,Chrome,92.0.4515.131,Windows,10.0,5f461dd6c139dd6b46c7596cbd57cd79
231,1,"""","""","""","""","""",sampler,172,114053,0.0-6.0-166.0,"""","""","""","""","""","""","""","""","""","""","""","""","2021-08-17 18:04:35",206.47.105.162,"Mozilla/5.0 (Windows NT 10.0; Win64; x64) AppleWebKit/537.36 (KHTML, like Gecko) Chrome/92.0.4515.131 Safari/537.36",WebKit,Chrome,92.0.4515.131,Windows,10.0,5f461dd6c139dd6b46c7596cbd57cd79
231,1,"""","""","""","""","""",sampler,173,114053,0.0-6.0-167.0,"""","""","""","""","""","""","""","""","""","""","""","""","2021-08-17 18:04:35",206.47.105.162,"Mozilla/5.0 (Windows NT 10.0; Win64; x64) AppleWebKit/537.36 (KHTML, like Gecko) Chrome/92.0.4515.131 Safari/537.36",WebKit,Chrome,92.0.4515.131,Windows,10.0,5f461dd6c139dd6b46c7596cbd57cd79
231,1,"""","""","""","""","""",sampler,174,114054,0.0-6.0-168.0,"""","""","""","""","""","""","""","""","""","""","""","""","2021-08-17 18:04:35",206.47.105.162,"Mozilla/5.0 (Windows NT 10.0; Win64; x64) AppleWebKit/537.36 (KHTML, like Gecko) Chrome/92.0.4515.131 Safari/537.36",WebKit,Chrome,92.0.4515.131,Windows,10.0,5f461dd6c139dd6b46c7596cbd57cd79
231,1,"""","""","""","""","""",sampler,175,114054,0.0-6.0-169.0,"""","""","""","""","""","""","""","""","""","""","""","""","2021-08-17 18:04:35",206.47.105.162,"Mozilla/5.0 (Windows NT 10.0; Win64; x64) AppleWebKit/537.36 (KHTML, like Gecko) Chrome/92.0.4515.131 Safari/537.36",WebKit,Chrome,92.0.4515.131,Windows,10.0,5f461dd6c139dd6b46c7596cbd57cd79
231,1,"""","""","""","""","""",sampler,176,114054,0.0-6.0-170.0,"""","""","""","""","""","""","""","""","""","""","""","""","2021-08-17 18:04:35",206.47.105.162,"Mozilla/5.0 (Windows NT 10.0; Win64; x64) AppleWebKit/537.36 (KHTML, like Gecko) Chrome/92.0.4515.131 Safari/537.36",WebKit,Chrome,92.0.4515.131,Windows,10.0,5f461dd6c139dd6b46c7596cbd57cd79
231,1,"""","""","""","""","""",sampler,177,114054,0.0-6.0-171.0,"""","""","""","""","""","""","""","""","""","""","""","""","2021-08-17 18:04:35",206.47.105.162,"Mozilla/5.0 (Windows NT 10.0; Win64; x64) AppleWebKit/537.36 (KHTML, like Gecko) Chrome/92.0.4515.131 Safari/537.36",WebKit,Chrome,92.0.4515.131,Windows,10.0,5f461dd6c139dd6b46c7596cbd57cd79
231,1,"""","""","""","""","""",sampler,178,114054,0.0-6.0-172.0,"""","""","""","""","""","""","""","""","""","""","""","""","2021-08-17 18:04:35",206.47.105.162,"Mozilla/5.0 (Windows NT 10.0; Win64; x64) AppleWebKit/537.36 (KHTML, like Gecko) Chrome/92.0.4515.131 Safari/537.36",WebKit,Chrome,92.0.4515.131,Windows,10.0,5f461dd6c139dd6b46c7596cbd57cd79
231,1,"""","""","""","""","""",sampler,179,114054,0.0-6.0-173.0,"""","""","""","""","""","""","""","""","""","""","""","""","2021-08-17 18:04:35",206.47.105.162,"Mozilla/5.0 (Windows NT 10.0; Win64; x64) AppleWebKit/537.36 (KHTML, like Gecko) Chrome/92.0.4515.131 Safari/537.36",WebKit,Chrome,92.0.4515.131,Windows,10.0,5f461dd6c139dd6b46c7596cbd57cd79
231,1,"""","""","""","""","""",sampler,180,114054,0.0-6.0-174.0,"""","""","""","""","""","""","""","""","""","""","""","""","2021-08-17 18:04:35",206.47.105.162,"Mozilla/5.0 (Windows NT 10.0; Win64; x64) AppleWebKit/537.36 (KHTML, like Gecko) Chrome/92.0.4515.131 Safari/537.36",WebKit,Chrome,92.0.4515.131,Windows,10.0,5f461dd6c139dd6b46c7596cbd57cd79
231,1,"""","""","""","""","""",sampler,181,114054,0.0-6.0-175.0,"""","""","""","""","""","""","""","""","""","""","""","""","2021-08-17 18:04:35",206.47.105.162,"Mozilla/5.0 (Windows NT 10.0; Win64; x64) AppleWebKit/537.36 (KHTML, like Gecko) Chrome/92.0.4515.131 Safari/537.36",WebKit,Chrome,92.0.4515.131,Windows,10.0,5f461dd6c139dd6b46c7596cbd57cd79
231,1,"""","""","""","""","""",sampler,182,114054,0.0-6.0-176.0,"""","""","""","""","""","""","""","""","""","""","""","""","2021-08-17 18:04:35",206.47.105.162,"Mozilla/5.0 (Windows NT 10.0; Win64; x64) AppleWebKit/537.36 (KHTML, like Gecko) Chrome/92.0.4515.131 Safari/537.36",WebKit,Chrome,92.0.4515.131,Windows,10.0,5f461dd6c139dd6b46c7596cbd57cd79
231,1,"""","""","""","""","""",sampler,183,114055,0.0-6.0-177.0,"""","""","""","""","""","""","""","""","""","""","""","""","2021-08-17 18:04:35",206.47.105.162,"Mozilla/5.0 (Windows NT 10.0; Win64; x64) AppleWebKit/537.36 (KHTML, like Gecko) Chrome/92.0.4515.131 Safari/537.36",WebKit,Chrome,92.0.4515.131,Windows,10.0,5f461dd6c139dd6b46c7596cbd57cd79
231,1,"""","""","""","""","""",sampler,184,114055,0.0-6.0-178.0,"""","""","""","""","""","""","""","""","""","""","""","""","2021-08-17 18:04:35",206.47.105.162,"Mozilla/5.0 (Windows NT 10.0; Win64; x64) AppleWebKit/537.36 (KHTML, like Gecko) Chrome/92.0.4515.131 Safari/537.36",WebKit,Chrome,92.0.4515.131,Windows,10.0,5f461dd6c139dd6b46c7596cbd57cd79
231,1,"""","""","""","""","""",sampler,185,114055,0.0-6.0-179.0,"""","""","""","""","""","""","""","""","""","""","""","""","2021-08-17 18:04:35",206.47.105.162,"Mozilla/5.0 (Windows NT 10.0; Win64; x64) AppleWebKit/537.36 (KHTML, like Gecko) Chrome/92.0.4515.131 Safari/537.36",WebKit,Chrome,92.0.4515.131,Windows,10.0,5f461dd6c139dd6b46c7596cbd57cd79
231,1,"""","""","""","""","""",sampler,186,114055,0.0-6.0-180.0,"""","""","""","""","""","""","""","""","""","""","""","""","2021-08-17 18:04:35",206.47.105.162,"Mozilla/5.0 (Windows NT 10.0; Win64; x64) AppleWebKit/537.36 (KHTML, like Gecko) Chrome/92.0.4515.131 Safari/537.36",WebKit,Chrome,92.0.4515.131,Windows,10.0,5f461dd6c139dd6b46c7596cbd57cd79
231,1,"""","""","""","""","""",sampler,187,114055,0.0-6.0-181.0,"""","""","""","""","""","""","""","""","""","""","""","""","2021-08-17 18:04:35",206.47.105.162,"Mozilla/5.0 (Windows NT 10.0; Win64; x64) AppleWebKit/537.36 (KHTML, like Gecko) Chrome/92.0.4515.131 Safari/537.36",WebKit,Chrome,92.0.4515.131,Windows,10.0,5f461dd6c139dd6b46c7596cbd57cd79
231,1,"""","""","""","""","""",sampler,188,114055,0.0-6.0-182.0,"""","""","""","""","""","""","""","""","""","""","""","""","2021-08-17 18:04:35",206.47.105.162,"Mozilla/5.0 (Windows NT 10.0; Win64; x64) AppleWebKit/537.36 (KHTML, like Gecko) Chrome/92.0.4515.131 Safari/537.36",WebKit,Chrome,92.0.4515.131,Windows,10.0,5f461dd6c139dd6b46c7596cbd57cd79
231,1,"""","""","""","""","""",sampler,189,114056,0.0-6.0-183.0,"""","""","""","""","""","""","""","""","""","""","""","""","2021-08-17 18:04:35",206.47.105.162,"Mozilla/5.0 (Windows NT 10.0; Win64; x64) AppleWebKit/537.36 (KHTML, like Gecko) Chrome/92.0.4515.131 Safari/537.36",WebKit,Chrome,92.0.4515.131,Windows,10.0,5f461dd6c139dd6b46c7596cbd57cd79
231,1,"""","""","""","""","""",sampler,190,114056,0.0-6.0-184.0,"""","""","""","""","""","""","""","""","""","""","""","""","2021-08-17 18:04:35",206.47.105.162,"Mozilla/5.0 (Windows NT 10.0; Win64; x64) AppleWebKit/537.36 (KHTML, like Gecko) Chrome/92.0.4515.131 Safari/537.36",WebKit,Chrome,92.0.4515.131,Windows,10.0,5f461dd6c139dd6b46c7596cbd57cd79
231,1,"""","""","""","""","""",sampler,191,114056,0.0-6.0-185.0,"""","""","""","""","""","""","""","""","""","""","""","""","2021-08-17 18:04:35",206.47.105.162,"Mozilla/5.0 (Windows NT 10.0; Win64; x64) AppleWebKit/537.36 (KHTML, like Gecko) Chrome/92.0.4515.131 Safari/537.36",WebKit,Chrome,92.0.4515.131,Windows,10.0,5f461dd6c139dd6b46c7596cbd57cd79
231,1,"""","""","""","""","""",sampler,192,114056,0.0-6.0-186.0,"""","""","""","""","""","""","""","""","""","""","""","""","2021-08-17 18:04:35",206.47.105.162,"Mozilla/5.0 (Windows NT 10.0; Win64; x64) AppleWebKit/537.36 (KHTML, like Gecko) Chrome/92.0.4515.131 Safari/537.36",WebKit,Chrome,92.0.4515.131,Windows,10.0,5f461dd6c139dd6b46c7596cbd57cd79
231,1,"""","""","""","""","""",sampler,193,114056,0.0-6.0-187.0,"""","""","""","""","""","""","""","""","""","""","""","""","2021-08-17 18:04:35",206.47.105.162,"Mozilla/5.0 (Windows NT 10.0; Win64; x64) AppleWebKit/537.36 (KHTML, like Gecko) Chrome/92.0.4515.131 Safari/537.36",WebKit,Chrome,92.0.4515.131,Windows,10.0,5f461dd6c139dd6b46c7596cbd57cd79
231,1,"""","""","""","""","""",sampler,194,114056,0.0-6.0-188.0,"""","""","""","""","""","""","""","""","""","""","""","""","2021-08-17 18:04:35",206.47.105.162,"Mozilla/5.0 (Windows NT 10.0; Win64; x64) AppleWebKit/537.36 (KHTML, like Gecko) Chrome/92.0.4515.131 Safari/537.36",WebKit,Chrome,92.0.4515.131,Windows,10.0,5f461dd6c139dd6b46c7596cbd57cd79
231,1,"""","""","""","""","""",sampler,195,114056,0.0-6.0-189.0,"""","""","""","""","""","""","""","""","""","""","""","""","2021-08-17 18:04:35",206.47.105.162,"Mozilla/5.0 (Windows NT 10.0; Win64; x64) AppleWebKit/537.36 (KHTML, like Gecko) Chrome/92.0.4515.131 Safari/537.36",WebKit,Chrome,92.0.4515.131,Windows,10.0,5f461dd6c139dd6b46c7596cbd57cd79
231,1,"""","""","""","""","""",sampler,196,114056,0.0-6.0-190.0,"""","""","""","""","""","""","""","""","""","""","""","""","2021-08-17 18:04:35",206.47.105.162,"Mozilla/5.0 (Windows NT 10.0; Win64; x64) AppleWebKit/537.36 (KHTML, like Gecko) Chrome/92.0.4515.131 Safari/537.36",WebKit,Chrome,92.0.4515.131,Windows,10.0,5f461dd6c139dd6b46c7596cbd57cd79
231,1,"""","""","""","""","""",sampler,197,114056,0.0-6.0-191.0,"""","""","""","""","""","""","""","""","""","""","""","""","2021-08-17 18:04:35",206.47.105.162,"Mozilla/5.0 (Windows NT 10.0; Win64; x64) AppleWebKit/537.36 (KHTML, like Gecko) Chrome/92.0.4515.131 Safari/537.36",WebKit,Chrome,92.0.4515.131,Windows,10.0,5f461dd6c139dd6b46c7596cbd57cd79
231,1,"""","""","""","""","""",sampler,198,114056,0.0-6.0-192.0,"""","""","""","""","""","""","""","""","""","""","""","""","2021-08-17 18:04:35",206.47.105.162,"Mozilla/5.0 (Windows NT 10.0; Win64; x64) AppleWebKit/537.36 (KHTML, like Gecko) Chrome/92.0.4515.131 Safari/537.36",WebKit,Chrome,92.0.4515.131,Windows,10.0,5f461dd6c139dd6b46c7596cbd57cd79
231,1,"""","""","""","""","""",sampler,199,114056,0.0-6.0-193.0,"""","""","""","""","""","""","""","""","""","""","""","""","2021-08-17 18:04:35",206.47.105.162,"Mozilla/5.0 (Windows NT 10.0; Win64; x64) AppleWebKit/537.36 (KHTML, like Gecko) Chrome/92.0.4515.131 Safari/537.36",WebKit,Chrome,92.0.4515.131,Windows,10.0,5f461dd6c139dd6b46c7596cbd57cd79
231,1,"""","""","""","""","""",sampler,200,114056,0.0-6.0-194.0,"""","""","""","""","""","""","""","""","""","""","""","""","2021-08-17 18:04:35",206.47.105.162,"Mozilla/5.0 (Windows NT 10.0; Win64; x64) AppleWebKit/537.36 (KHTML, like Gecko) Chrome/92.0.4515.131 Safari/537.36",WebKit,Chrome,92.0.4515.131,Windows,10.0,5f461dd6c139dd6b46c7596cbd57cd79
231,1,"""","""","""","""","""",sampler,201,114057,0.0-6.0-195.0,"""","""","""","""","""","""","""","""","""","""","""","""","2021-08-17 18:04:35",206.47.105.162,"Mozilla/5.0 (Windows NT 10.0; Win64; x64) AppleWebKit/537.36 (KHTML, like Gecko) Chrome/92.0.4515.131 Safari/537.36",WebKit,Chrome,92.0.4515.131,Windows,10.0,5f461dd6c139dd6b46c7596cbd57cd79
231,1,"""","""","""","""","""",sampler,202,114057,0.0-6.0-196.0,"""","""","""","""","""","""","""","""","""","""","""","""","2021-08-17 18:04:35",206.47.105.162,"Mozilla/5.0 (Windows NT 10.0; Win64; x64) AppleWebKit/537.36 (KHTML, like Gecko) Chrome/92.0.4515.131 Safari/537.36",WebKit,Chrome,92.0.4515.131,Windows,10.0,5f461dd6c139dd6b46c7596cbd57cd79
231,1,"""","""","""","""","""",sampler,203,114057,0.0-6.0-197.0,"""","""","""","""","""","""","""","""","""","""","""","""","2021-08-17 18:04:35",206.47.105.162,"Mozilla/5.0 (Windows NT 10.0; Win64; x64) AppleWebKit/537.36 (KHTML, like Gecko) Chrome/92.0.4515.131 Safari/537.36",WebKit,Chrome,92.0.4515.131,Windows,10.0,5f461dd6c139dd6b46c7596cbd57cd79
231,1,"""","""","""","""","""",sampler,204,114057,0.0-6.0-198.0,"""","""","""","""","""","""","""","""","""","""","""","""","2021-08-17 18:04:35",206.47.105.162,"Mozilla/5.0 (Windows NT 10.0; Win64; x64) AppleWebKit/537.36 (KHTML, like Gecko) Chrome/92.0.4515.131 Safari/537.36",WebKit,Chrome,92.0.4515.131,Windows,10.0,5f461dd6c139dd6b46c7596cbd57cd79
231,1,"""","""","""","""","""",sampler,205,114057,0.0-6.0-199.0,"""","""","""","""","""","""","""","""","""","""","""","""","2021-08-17 18:04:35",206.47.105.162,"Mozilla/5.0 (Windows NT 10.0; Win64; x64) AppleWebKit/537.36 (KHTML, like Gecko) Chrome/92.0.4515.131 Safari/537.36",WebKit,Chrome,92.0.4515.131,Windows,10.0,5f461dd6c139dd6b46c7596cbd57cd79
231,1,"""","""","""","""","""",sampler,206,114057,0.0-6.0-200.0,"""","""","""","""","""","""","""","""","""","""","""","""","2021-08-17 18:04:35",206.47.105.162,"Mozilla/5.0 (Windows NT 10.0; Win64; x64) AppleWebKit/537.36 (KHTML, like Gecko) Chrome/92.0.4515.131 Safari/537.36",WebKit,Chrome,92.0.4515.131,Windows,10.0,5f461dd6c139dd6b46c7596cbd57cd79
231,1,"""","""","""","""","""",sampler,207,114057,0.0-6.0-201.0,"""","""","""","""","""","""","""","""","""","""","""","""","2021-08-17 18:04:35",206.47.105.162,"Mozilla/5.0 (Windows NT 10.0; Win64; x64) AppleWebKit/537.36 (KHTML, like Gecko) Chrome/92.0.4515.131 Safari/537.36",WebKit,Chrome,92.0.4515.131,Windows,10.0,5f461dd6c139dd6b46c7596cbd57cd79
231,1,"""","""","""","""","""",sampler,208,114057,0.0-6.0-202.0,"""","""","""","""","""","""","""","""","""","""","""","""","2021-08-17 18:04:35",206.47.105.162,"Mozilla/5.0 (Windows NT 10.0; Win64; x64) AppleWebKit/537.36 (KHTML, like Gecko) Chrome/92.0.4515.131 Safari/537.36",WebKit,Chrome,92.0.4515.131,Windows,10.0,5f461dd6c139dd6b46c7596cbd57cd79
231,1,"""","""","""","""","""",sampler,209,114057,0.0-6.0-203.0,"""","""","""","""","""","""","""","""","""","""","""","""","2021-08-17 18:04:35",206.47.105.162,"Mozilla/5.0 (Windows NT 10.0; Win64; x64) AppleWebKit/537.36 (KHTML, like Gecko) Chrome/92.0.4515.131 Safari/537.36",WebKit,Chrome,92.0.4515.131,Windows,10.0,5f461dd6c139dd6b46c7596cbd57cd79
231,1,"""","""","""","""","""",sampler,210,114057,0.0-6.0-204.0,"""","""","""","""","""","""","""","""","""","""","""","""","2021-08-17 18:04:35",206.47.105.162,"Mozilla/5.0 (Windows NT 10.0; Win64; x64) AppleWebKit/537.36 (KHTML, like Gecko) Chrome/92.0.4515.131 Safari/537.36",WebKit,Chrome,92.0.4515.131,Windows,10.0,5f461dd6c139dd6b46c7596cbd57cd79
231,1,"""","""","""","""","""",sampler,211,114057,0.0-6.0-205.0,"""","""","""","""","""","""","""","""","""","""","""","""","2021-08-17 18:04:35",206.47.105.162,"Mozilla/5.0 (Windows NT 10.0; Win64; x64) AppleWebKit/537.36 (KHTML, like Gecko) Chrome/92.0.4515.131 Safari/537.36",WebKit,Chrome,92.0.4515.131,Windows,10.0,5f461dd6c139dd6b46c7596cbd57cd79
231,1,"""","""","""","""","""",sampler,212,114057,0.0-6.0-206.0,"""","""","""","""","""","""","""","""","""","""","""","""","2021-08-17 18:04:35",206.47.105.162,"Mozilla/5.0 (Windows NT 10.0; Win64; x64) AppleWebKit/537.36 (KHTML, like Gecko) Chrome/92.0.4515.131 Safari/537.36",WebKit,Chrome,92.0.4515.131,Windows,10.0,5f461dd6c139dd6b46c7596cbd57cd79
231,1,"""","""","""","""","""",sampler,213,114058,0.0-6.0-207.0,"""","""","""","""","""","""","""","""","""","""","""","""","2021-08-17 18:04:35",206.47.105.162,"Mozilla/5.0 (Windows NT 10.0; Win64; x64) AppleWebKit/537.36 (KHTML, like Gecko) Chrome/92.0.4515.131 Safari/537.36",WebKit,Chrome,92.0.4515.131,Windows,10.0,5f461dd6c139dd6b46c7596cbd57cd79
231,1,"""","""","""","""","""",sampler,214,114058,0.0-6.0-208.0,"""","""","""","""","""","""","""","""","""","""","""","""","2021-08-17 18:04:35",206.47.105.162,"Mozilla/5.0 (Windows NT 10.0; Win64; x64) AppleWebKit/537.36 (KHTML, like Gecko) Chrome/92.0.4515.131 Safari/537.36",WebKit,Chrome,92.0.4515.131,Windows,10.0,5f461dd6c139dd6b46c7596cbd57cd79
231,1,"""","""","""","""","""",sampler,215,114058,0.0-6.0-209.0,"""","""","""","""","""","""","""","""","""","""","""","""","2021-08-17 18:04:35",206.47.105.162,"Mozilla/5.0 (Windows NT 10.0; Win64; x64) AppleWebKit/537.36 (KHTML, like Gecko) Chrome/92.0.4515.131 Safari/537.36",WebKit,Chrome,92.0.4515.131,Windows,10.0,5f461dd6c139dd6b46c7596cbd57cd79
231,1,"""","""","""","""","""",sampler,216,114058,0.0-6.0-210.0,"""","""","""","""","""","""","""","""","""","""","""","""","2021-08-17 18:04:35",206.47.105.162,"Mozilla/5.0 (Windows NT 10.0; Win64; x64) AppleWebKit/537.36 (KHTML, like Gecko) Chrome/92.0.4515.131 Safari/537.36",WebKit,Chrome,92.0.4515.131,Windows,10.0,5f461dd6c139dd6b46c7596cbd57cd79
231,1,"""","""","""","""","""",sampler,217,114058,0.0-6.0-211.0,"""","""","""","""","""","""","""","""","""","""","""","""","2021-08-17 18:04:35",206.47.105.162,"Mozilla/5.0 (Windows NT 10.0; Win64; x64) AppleWebKit/537.36 (KHTML, like Gecko) Chrome/92.0.4515.131 Safari/537.36",WebKit,Chrome,92.0.4515.131,Windows,10.0,5f461dd6c139dd6b46c7596cbd57cd79
231,1,"""","""","""","""","""",sampler,218,114058,0.0-6.0-212.0,"""","""","""","""","""","""","""","""","""","""","""","""","2021-08-17 18:04:35",206.47.105.162,"Mozilla/5.0 (Windows NT 10.0; Win64; x64) AppleWebKit/537.36 (KHTML, like Gecko) Chrome/92.0.4515.131 Safari/537.36",WebKit,Chrome,92.0.4515.131,Windows,10.0,5f461dd6c139dd6b46c7596cbd57cd79
231,1,"""","""","""","""","""",sampler,219,114058,0.0-6.0-213.0,"""","""","""","""","""","""","""","""","""","""","""","""","2021-08-17 18:04:35",206.47.105.162,"Mozilla/5.0 (Windows NT 10.0; Win64; x64) AppleWebKit/537.36 (KHTML, like Gecko) Chrome/92.0.4515.131 Safari/537.36",WebKit,Chrome,92.0.4515.131,Windows,10.0,5f461dd6c139dd6b46c7596cbd57cd79
231,1,"""","""","""","""","""",sampler,220,114058,0.0-6.0-214.0,"""","""","""","""","""","""","""","""","""","""","""","""","2021-08-17 18:04:35",206.47.105.162,"Mozilla/5.0 (Windows NT 10.0; Win64; x64) AppleWebKit/537.36 (KHTML, like Gecko) Chrome/92.0.4515.131 Safari/537.36",WebKit,Chrome,92.0.4515.131,Windows,10.0,5f461dd6c139dd6b46c7596cbd57cd79
231,1,"""","""","""","""","""",sampler,221,114058,0.0-6.0-215.0,"""","""","""","""","""","""","""","""","""","""","""","""","2021-08-17 18:04:35",206.47.105.162,"Mozilla/5.0 (Windows NT 10.0; Win64; x64) AppleWebKit/537.36 (KHTML, like Gecko) Chrome/92.0.4515.131 Safari/537.36",WebKit,Chrome,92.0.4515.131,Windows,10.0,5f461dd6c139dd6b46c7596cbd57cd79
231,1,"""","""","""","""","""",sampler,222,114058,0.0-6.0-216.0,"""","""","""","""","""","""","""","""","""","""","""","""","2021-08-17 18:04:35",206.47.105.162,"Mozilla/5.0 (Windows NT 10.0; Win64; x64) AppleWebKit/537.36 (KHTML, like Gecko) Chrome/92.0.4515.131 Safari/537.36",WebKit,Chrome,92.0.4515.131,Windows,10.0,5f461dd6c139dd6b46c7596cbd57cd79
231,1,"""","""","""","""","""",sampler,223,114058,0.0-6.0-217.0,"""","""","""","""","""","""","""","""","""","""","""","""","2021-08-17 18:04:35",206.47.105.162,"Mozilla/5.0 (Windows NT 10.0; Win64; x64) AppleWebKit/537.36 (KHTML, like Gecko) Chrome/92.0.4515.131 Safari/537.36",WebKit,Chrome,92.0.4515.131,Windows,10.0,5f461dd6c139dd6b46c7596cbd57cd79
231,1,"""","""","""","""","""",sampler,224,114059,0.0-6.0-218.0,"""","""","""","""","""","""","""","""","""","""","""","""","2021-08-17 18:04:35",206.47.105.162,"Mozilla/5.0 (Windows NT 10.0; Win64; x64) AppleWebKit/537.36 (KHTML, like Gecko) Chrome/92.0.4515.131 Safari/537.36",WebKit,Chrome,92.0.4515.131,Windows,10.0,5f461dd6c139dd6b46c7596cbd57cd79
231,1,"""","""","""","""","""",sampler,225,114059,0.0-6.0-219.0,"""","""","""","""","""","""","""","""","""","""","""","""","2021-08-17 18:04:35",206.47.105.162,"Mozilla/5.0 (Windows NT 10.0; Win64; x64) AppleWebKit/537.36 (KHTML, like Gecko) Chrome/92.0.4515.131 Safari/537.36",WebKit,Chrome,92.0.4515.131,Windows,10.0,5f461dd6c139dd6b46c7596cbd57cd79
231,1,"""","""","""","""","""",sampler,226,114059,0.0-6.0-220.0,"""","""","""","""","""","""","""","""","""","""","""","""","2021-08-17 18:04:35",206.47.105.162,"Mozilla/5.0 (Windows NT 10.0; Win64; x64) AppleWebKit/537.36 (KHTML, like Gecko) Chrome/92.0.4515.131 Safari/537.36",WebKit,Chrome,92.0.4515.131,Windows,10.0,5f461dd6c139dd6b46c7596cbd57cd79
231,1,"""","""","""","""","""",sampler,227,114059,0.0-6.0-221.0,"""","""","""","""","""","""","""","""","""","""","""","""","2021-08-17 18:04:35",206.47.105.162,"Mozilla/5.0 (Windows NT 10.0; Win64; x64) AppleWebKit/537.36 (KHTML, like Gecko) Chrome/92.0.4515.131 Safari/537.36",WebKit,Chrome,92.0.4515.131,Windows,10.0,5f461dd6c139dd6b46c7596cbd57cd79
231,1,"""","""","""","""","""",sampler,228,114059,0.0-6.0-222.0,"""","""","""","""","""","""","""","""","""","""","""","""","2021-08-17 18:04:35",206.47.105.162,"Mozilla/5.0 (Windows NT 10.0; Win64; x64) AppleWebKit/537.36 (KHTML, like Gecko) Chrome/92.0.4515.131 Safari/537.36",WebKit,Chrome,92.0.4515.131,Windows,10.0,5f461dd6c139dd6b46c7596cbd57cd79
231,1,"""","""","""","""","""",sampler,229,114059,0.0-6.0-223.0,"""","""","""","""","""","""","""","""","""","""","""","""","2021-08-17 18:04:35",206.47.105.162,"Mozilla/5.0 (Windows NT 10.0; Win64; x64) AppleWebKit/537.36 (KHTML, like Gecko) Chrome/92.0.4515.131 Safari/537.36",WebKit,Chrome,92.0.4515.131,Windows,10.0,5f461dd6c139dd6b46c7596cbd57cd79
231,1,"""","""","""","""","""",sampler,230,114059,0.0-6.0-224.0,"""","""","""","""","""","""","""","""","""","""","""","""","2021-08-17 18:04:35",206.47.105.162,"Mozilla/5.0 (Windows NT 10.0; Win64; x64) AppleWebKit/537.36 (KHTML, like Gecko) Chrome/92.0.4515.131 Safari/537.36",WebKit,Chrome,92.0.4515.131,Windows,10.0,5f461dd6c139dd6b46c7596cbd57cd79
231,1,"""","""","""","""","""",sampler,231,114059,0.0-6.0-225.0,"""","""","""","""","""","""","""","""","""","""","""","""","2021-08-17 18:04:35",206.47.105.162,"Mozilla/5.0 (Windows NT 10.0; Win64; x64) AppleWebKit/537.36 (KHTML, like Gecko) Chrome/92.0.4515.131 Safari/537.36",WebKit,Chrome,92.0.4515.131,Windows,10.0,5f461dd6c139dd6b46c7596cbd57cd79
231,1,"""","""","""","""","""",sampler,232,114059,0.0-6.0-226.0,"""","""","""","""","""","""","""","""","""","""","""","""","2021-08-17 18:04:35",206.47.105.162,"Mozilla/5.0 (Windows NT 10.0; Win64; x64) AppleWebKit/537.36 (KHTML, like Gecko) Chrome/92.0.4515.131 Safari/537.36",WebKit,Chrome,92.0.4515.131,Windows,10.0,5f461dd6c139dd6b46c7596cbd57cd79
231,1,"""","""","""","""","""",sampler,233,114059,0.0-6.0-227.0,"""","""","""","""","""","""","""","""","""","""","""","""","2021-08-17 18:04:35",206.47.105.162,"Mozilla/5.0 (Windows NT 10.0; Win64; x64) AppleWebKit/537.36 (KHTML, like Gecko) Chrome/92.0.4515.131 Safari/537.36",WebKit,Chrome,92.0.4515.131,Windows,10.0,5f461dd6c139dd6b46c7596cbd57cd79
231,1,"""","""","""","""","""",sampler,234,114059,0.0-6.0-228.0,"""","""","""","""","""","""","""","""","""","""","""","""","2021-08-17 18:04:35",206.47.105.162,"Mozilla/5.0 (Windows NT 10.0; Win64; x64) AppleWebKit/537.36 (KHTML, like Gecko) Chrome/92.0.4515.131 Safari/537.36",WebKit,Chrome,92.0.4515.131,Windows,10.0,5f461dd6c139dd6b46c7596cbd57cd79
231,1,"""","""","""","""","""",sampler,235,114059,0.0-6.0-229.0,"""","""","""","""","""","""","""","""","""","""","""","""","2021-08-17 18:04:35",206.47.105.162,"Mozilla/5.0 (Windows NT 10.0; Win64; x64) AppleWebKit/537.36 (KHTML, like Gecko) Chrome/92.0.4515.131 Safari/537.36",WebKit,Chrome,92.0.4515.131,Windows,10.0,5f461dd6c139dd6b46c7596cbd57cd79
231,1,"""","""","""","""","""",sampler,236,114060,0.0-6.0-230.0,"""","""","""","""","""","""","""","""","""","""","""","""","2021-08-17 18:04:35",206.47.105.162,"Mozilla/5.0 (Windows NT 10.0; Win64; x64) AppleWebKit/537.36 (KHTML, like Gecko) Chrome/92.0.4515.131 Safari/537.36",WebKit,Chrome,92.0.4515.131,Windows,10.0,5f461dd6c139dd6b46c7596cbd57cd79
231,1,"""","""","""","""","""",sampler,237,114060,0.0-6.0-231.0,"""","""","""","""","""","""","""","""","""","""","""","""","2021-08-17 18:04:35",206.47.105.162,"Mozilla/5.0 (Windows NT 10.0; Win64; x64) AppleWebKit/537.36 (KHTML, like Gecko) Chrome/92.0.4515.131 Safari/537.36",WebKit,Chrome,92.0.4515.131,Windows,10.0,5f461dd6c139dd6b46c7596cbd57cd79
231,1,"""","""","""","""","""",sampler,238,114060,0.0-6.0-232.0,"""","""","""","""","""","""","""","""","""","""","""","""","2021-08-17 18:04:35",206.47.105.162,"Mozilla/5.0 (Windows NT 10.0; Win64; x64) AppleWebKit/537.36 (KHTML, like Gecko) Chrome/92.0.4515.131 Safari/537.36",WebKit,Chrome,92.0.4515.131,Windows,10.0,5f461dd6c139dd6b46c7596cbd57cd79
231,1,"""","""","""","""","""",sampler,239,114060,0.0-6.0-233.0,"""","""","""","""","""","""","""","""","""","""","""","""","2021-08-17 18:04:35",206.47.105.162,"Mozilla/5.0 (Windows NT 10.0; Win64; x64) AppleWebKit/537.36 (KHTML, like Gecko) Chrome/92.0.4515.131 Safari/537.36",WebKit,Chrome,92.0.4515.131,Windows,10.0,5f461dd6c139dd6b46c7596cbd57cd79
231,1,"""","""","""","""","""",sampler,240,114060,0.0-6.0-234.0,"""","""","""","""","""","""","""","""","""","""","""","""","2021-08-17 18:04:35",206.47.105.162,"Mozilla/5.0 (Windows NT 10.0; Win64; x64) AppleWebKit/537.36 (KHTML, like Gecko) Chrome/92.0.4515.131 Safari/537.36",WebKit,Chrome,92.0.4515.131,Windows,10.0,5f461dd6c139dd6b46c7596cbd57cd79
231,1,"""","""","""","""","""",sampler,241,114060,0.0-6.0-235.0,"""","""","""","""","""","""","""","""","""","""","""","""","2021-08-17 18:04:35",206.47.105.162,"Mozilla/5.0 (Windows NT 10.0; Win64; x64) AppleWebKit/537.36 (KHTML, like Gecko) Chrome/92.0.4515.131 Safari/537.36",WebKit,Chrome,92.0.4515.131,Windows,10.0,5f461dd6c139dd6b46c7596cbd57cd79
231,1,"""","""","""","""","""",sampler,242,114060,0.0-6.0-236.0,"""","""","""","""","""","""","""","""","""","""","""","""","2021-08-17 18:04:35",206.47.105.162,"Mozilla/5.0 (Windows NT 10.0; Win64; x64) AppleWebKit/537.36 (KHTML, like Gecko) Chrome/92.0.4515.131 Safari/537.36",WebKit,Chrome,92.0.4515.131,Windows,10.0,5f461dd6c139dd6b46c7596cbd57cd79
231,1,"""","""","""","""","""",sampler,243,114060,0.0-6.0-237.0,"""","""","""","""","""","""","""","""","""","""","""","""","2021-08-17 18:04:35",206.47.105.162,"Mozilla/5.0 (Windows NT 10.0; Win64; x64) AppleWebKit/537.36 (KHTML, like Gecko) Chrome/92.0.4515.131 Safari/537.36",WebKit,Chrome,92.0.4515.131,Windows,10.0,5f461dd6c139dd6b46c7596cbd57cd79
231,1,"""","""","""","""","""",sampler,244,114060,0.0-6.0-238.0,"""","""","""","""","""","""","""","""","""","""","""","""","2021-08-17 18:04:35",206.47.105.162,"Mozilla/5.0 (Windows NT 10.0; Win64; x64) AppleWebKit/537.36 (KHTML, like Gecko) Chrome/92.0.4515.131 Safari/537.36",WebKit,Chrome,92.0.4515.131,Windows,10.0,5f461dd6c139dd6b46c7596cbd57cd79
231,1,"""","""","""","""","""",sampler,245,114060,0.0-6.0-239.0,"""","""","""","""","""","""","""","""","""","""","""","""","2021-08-17 18:04:35",206.47.105.162,"Mozilla/5.0 (Windows NT 10.0; Win64; x64) AppleWebKit/537.36 (KHTML, like Gecko) Chrome/92.0.4515.131 Safari/537.36",WebKit,Chrome,92.0.4515.131,Windows,10.0,5f461dd6c139dd6b46c7596cbd57cd79
231,1,"""","""","""","""","""",sampler,246,114060,0.0-6.0-240.0,"""","""","""","""","""","""","""","""","""","""","""","""","2021-08-17 18:04:35",206.47.105.162,"Mozilla/5.0 (Windows NT 10.0; Win64; x64) AppleWebKit/537.36 (KHTML, like Gecko) Chrome/92.0.4515.131 Safari/537.36",WebKit,Chrome,92.0.4515.131,Windows,10.0,5f461dd6c139dd6b46c7596cbd57cd79
231,1,"""","""","""","""","""",sampler,247,114061,0.0-6.0-241.0,"""","""","""","""","""","""","""","""","""","""","""","""","2021-08-17 18:04:35",206.47.105.162,"Mozilla/5.0 (Windows NT 10.0; Win64; x64) AppleWebKit/537.36 (KHTML, like Gecko) Chrome/92.0.4515.131 Safari/537.36",WebKit,Chrome,92.0.4515.131,Windows,10.0,5f461dd6c139dd6b46c7596cbd57cd79
231,1,"""","""","""","""","""",sampler,248,114061,0.0-6.0-242.0,"""","""","""","""","""","""","""","""","""","""","""","""","2021-08-17 18:04:35",206.47.105.162,"Mozilla/5.0 (Windows NT 10.0; Win64; x64) AppleWebKit/537.36 (KHTML, like Gecko) Chrome/92.0.4515.131 Safari/537.36",WebKit,Chrome,92.0.4515.131,Windows,10.0,5f461dd6c139dd6b46c7596cbd57cd79
231,1,"""","""","""","""","""",sampler,249,114061,0.0-6.0-243.0,"""","""","""","""","""","""","""","""","""","""","""","""","2021-08-17 18:04:35",206.47.105.162,"Mozilla/5.0 (Windows NT 10.0; Win64; x64) AppleWebKit/537.36 (KHTML, like Gecko) Chrome/92.0.4515.131 Safari/537.36",WebKit,Chrome,92.0.4515.131,Windows,10.0,5f461dd6c139dd6b46c7596cbd57cd79
231,1,"""","""","""","""","""",sampler,250,114061,0.0-6.0-244.0,"""","""","""","""","""","""","""","""","""","""","""","""","2021-08-17 18:04:35",206.47.105.162,"Mozilla/5.0 (Windows NT 10.0; Win64; x64) AppleWebKit/537.36 (KHTML, like Gecko) Chrome/92.0.4515.131 Safari/537.36",WebKit,Chrome,92.0.4515.131,Windows,10.0,5f461dd6c139dd6b46c7596cbd57cd79
231,1,"""","""","""","""","""",sampler,251,114061,0.0-6.0-245.0,"""","""","""","""","""","""","""","""","""","""","""","""","2021-08-17 18:04:35",206.47.105.162,"Mozilla/5.0 (Windows NT 10.0; Win64; x64) AppleWebKit/537.36 (KHTML, like Gecko) Chrome/92.0.4515.131 Safari/537.36",WebKit,Chrome,92.0.4515.131,Windows,10.0,5f461dd6c139dd6b46c7596cbd57cd79
231,1,"""","""","""","""","""",sampler,252,114061,0.0-6.0-246.0,"""","""","""","""","""","""","""","""","""","""","""","""","2021-08-17 18:04:35",206.47.105.162,"Mozilla/5.0 (Windows NT 10.0; Win64; x64) AppleWebKit/537.36 (KHTML, like Gecko) Chrome/92.0.4515.131 Safari/537.36",WebKit,Chrome,92.0.4515.131,Windows,10.0,5f461dd6c139dd6b46c7596cbd57cd79
231,1,"""","""","""","""","""",sampler,253,114061,0.0-6.0-247.0,"""","""","""","""","""","""","""","""","""","""","""","""","2021-08-17 18:04:35",206.47.105.162,"Mozilla/5.0 (Windows NT 10.0; Win64; x64) AppleWebKit/537.36 (KHTML, like Gecko) Chrome/92.0.4515.131 Safari/537.36",WebKit,Chrome,92.0.4515.131,Windows,10.0,5f461dd6c139dd6b46c7596cbd57cd79
231,1,"""","""","""","""","""",sampler,254,114061,0.0-6.0-248.0,"""","""","""","""","""","""","""","""","""","""","""","""","2021-08-17 18:04:35",206.47.105.162,"Mozilla/5.0 (Windows NT 10.0; Win64; x64) AppleWebKit/537.36 (KHTML, like Gecko) Chrome/92.0.4515.131 Safari/537.36",WebKit,Chrome,92.0.4515.131,Windows,10.0,5f461dd6c139dd6b46c7596cbd57cd79
231,1,"""","""","""","""","""",sampler,255,114061,0.0-6.0-249.0,"""","""","""","""","""","""","""","""","""","""","""","""","2021-08-17 18:04:35",206.47.105.162,"Mozilla/5.0 (Windows NT 10.0; Win64; x64) AppleWebKit/537.36 (KHTML, like Gecko) Chrome/92.0.4515.131 Safari/537.36",WebKit,Chrome,92.0.4515.131,Windows,10.0,5f461dd6c139dd6b46c7596cbd57cd79
231,1,"""","""","""","""","""",sampler,256,114061,0.0-6.0-250.0,"""","""","""","""","""","""","""","""","""","""","""","""","2021-08-17 18:04:35",206.47.105.162,"Mozilla/5.0 (Windows NT 10.0; Win64; x64) AppleWebKit/537.36 (KHTML, like Gecko) Chrome/92.0.4515.131 Safari/537.36",WebKit,Chrome,92.0.4515.131,Windows,10.0,5f461dd6c139dd6b46c7596cbd57cd79
231,1,"""","""","""","""","""",sampler,257,114061,0.0-6.0-251.0,"""","""","""","""","""","""","""","""","""","""","""","""","2021-08-17 18:04:35",206.47.105.162,"Mozilla/5.0 (Windows NT 10.0; Win64; x64) AppleWebKit/537.36 (KHTML, like Gecko) Chrome/92.0.4515.131 Safari/537.36",WebKit,Chrome,92.0.4515.131,Windows,10.0,5f461dd6c139dd6b46c7596cbd57cd79
231,1,"""","""","""","""","""",sampler,258,114061,0.0-6.0-252.0,"""","""","""","""","""","""","""","""","""","""","""","""","2021-08-17 18:04:35",206.47.105.162,"Mozilla/5.0 (Windows NT 10.0; Win64; x64) AppleWebKit/537.36 (KHTML, like Gecko) Chrome/92.0.4515.131 Safari/537.36",WebKit,Chrome,92.0.4515.131,Windows,10.0,5f461dd6c139dd6b46c7596cbd57cd79
231,1,"""","""","""","""","""",sampler,259,114062,0.0-6.0-253.0,"""","""","""","""","""","""","""","""","""","""","""","""","2021-08-17 18:04:35",206.47.105.162,"Mozilla/5.0 (Windows NT 10.0; Win64; x64) AppleWebKit/537.36 (KHTML, like Gecko) Chrome/92.0.4515.131 Safari/537.36",WebKit,Chrome,92.0.4515.131,Windows,10.0,5f461dd6c139dd6b46c7596cbd57cd79
231,1,"""","""","""","""","""",sampler,260,114062,0.0-6.0-254.0,"""","""","""","""","""","""","""","""","""","""","""","""","2021-08-17 18:04:35",206.47.105.162,"Mozilla/5.0 (Windows NT 10.0; Win64; x64) AppleWebKit/537.36 (KHTML, like Gecko) Chrome/92.0.4515.131 Safari/537.36",WebKit,Chrome,92.0.4515.131,Windows,10.0,5f461dd6c139dd6b46c7596cbd57cd79
231,1,"""","""","""","""","""",sampler,261,114062,0.0-6.0-255.0,"""","""","""","""","""","""","""","""","""","""","""","""","2021-08-17 18:04:35",206.47.105.162,"Mozilla/5.0 (Windows NT 10.0; Win64; x64) AppleWebKit/537.36 (KHTML, like Gecko) Chrome/92.0.4515.131 Safari/537.36",WebKit,Chrome,92.0.4515.131,Windows,10.0,5f461dd6c139dd6b46c7596cbd57cd79
231,1,"""","""","""","""","""",sampler,262,114062,0.0-6.0-256.0,"""","""","""","""","""","""","""","""","""","""","""","""","2021-08-17 18:04:35",206.47.105.162,"Mozilla/5.0 (Windows NT 10.0; Win64; x64) AppleWebKit/537.36 (KHTML, like Gecko) Chrome/92.0.4515.131 Safari/537.36",WebKit,Chrome,92.0.4515.131,Windows,10.0,5f461dd6c139dd6b46c7596cbd57cd79
231,1,"""","""","""","""","""",sampler,263,114063,0.0-6.0-257.0,"""","""","""","""","""","""","""","""","""","""","""","""","2021-08-17 18:04:35",206.47.105.162,"Mozilla/5.0 (Windows NT 10.0; Win64; x64) AppleWebKit/537.36 (KHTML, like Gecko) Chrome/92.0.4515.131 Safari/537.36",WebKit,Chrome,92.0.4515.131,Windows,10.0,5f461dd6c139dd6b46c7596cbd57cd79
231,1,"""","""","""","""","""",sampler,264,114063,0.0-6.0-258.0,"""","""","""","""","""","""","""","""","""","""","""","""","2021-08-17 18:04:35",206.47.105.162,"Mozilla/5.0 (Windows NT 10.0; Win64; x64) AppleWebKit/537.36 (KHTML, like Gecko) Chrome/92.0.4515.131 Safari/537.36",WebKit,Chrome,92.0.4515.131,Windows,10.0,5f461dd6c139dd6b46c7596cbd57cd79
231,1,"""","""","""","""","""",sampler,265,114063,0.0-6.0-259.0,"""","""","""","""","""","""","""","""","""","""","""","""","2021-08-17 18:04:35",206.47.105.162,"Mozilla/5.0 (Windows NT 10.0; Win64; x64) AppleWebKit/537.36 (KHTML, like Gecko) Chrome/92.0.4515.131 Safari/537.36",WebKit,Chrome,92.0.4515.131,Windows,10.0,5f461dd6c139dd6b46c7596cbd57cd79
231,1,"""","""","""","""","""",sampler,266,114063,0.0-6.0-260.0,"""","""","""","""","""","""","""","""","""","""","""","""","2021-08-17 18:04:35",206.47.105.162,"Mozilla/5.0 (Windows NT 10.0; Win64; x64) AppleWebKit/537.36 (KHTML, like Gecko) Chrome/92.0.4515.131 Safari/537.36",WebKit,Chrome,92.0.4515.131,Windows,10.0,5f461dd6c139dd6b46c7596cbd57cd79
231,1,"""","""","""","""","""",sampler,267,114063,0.0-6.0-261.0,"""","""","""","""","""","""","""","""","""","""","""","""","2021-08-17 18:04:35",206.47.105.162,"Mozilla/5.0 (Windows NT 10.0; Win64; x64) AppleWebKit/537.36 (KHTML, like Gecko) Chrome/92.0.4515.131 Safari/537.36",WebKit,Chrome,92.0.4515.131,Windows,10.0,5f461dd6c139dd6b46c7596cbd57cd79
231,1,"""","""","""","""","""",sampler,268,114063,0.0-6.0-262.0,"""","""","""","""","""","""","""","""","""","""","""","""","2021-08-17 18:04:35",206.47.105.162,"Mozilla/5.0 (Windows NT 10.0; Win64; x64) AppleWebKit/537.36 (KHTML, like Gecko) Chrome/92.0.4515.131 Safari/537.36",WebKit,Chrome,92.0.4515.131,Windows,10.0,5f461dd6c139dd6b46c7596cbd57cd79
231,1,"""","""","""","""","""",sampler,269,114063,0.0-6.0-263.0,"""","""","""","""","""","""","""","""","""","""","""","""","2021-08-17 18:04:35",206.47.105.162,"Mozilla/5.0 (Windows NT 10.0; Win64; x64) AppleWebKit/537.36 (KHTML, like Gecko) Chrome/92.0.4515.131 Safari/537.36",WebKit,Chrome,92.0.4515.131,Windows,10.0,5f461dd6c139dd6b46c7596cbd57cd79
231,1,"""","""","""","""","""",sampler,270,114063,0.0-6.0-264.0,"""","""","""","""","""","""","""","""","""","""","""","""","2021-08-17 18:04:35",206.47.105.162,"Mozilla/5.0 (Windows NT 10.0; Win64; x64) AppleWebKit/537.36 (KHTML, like Gecko) Chrome/92.0.4515.131 Safari/537.36",WebKit,Chrome,92.0.4515.131,Windows,10.0,5f461dd6c139dd6b46c7596cbd57cd79
231,1,"""","""","""","""","""",sampler,271,114063,0.0-6.0-265.0,"""","""","""","""","""","""","""","""","""","""","""","""","2021-08-17 18:04:35",206.47.105.162,"Mozilla/5.0 (Windows NT 10.0; Win64; x64) AppleWebKit/537.36 (KHTML, like Gecko) Chrome/92.0.4515.131 Safari/537.36",WebKit,Chrome,92.0.4515.131,Windows,10.0,5f461dd6c139dd6b46c7596cbd57cd79
231,1,"""","""","""","""","""",sampler,272,114063,0.0-6.0-266.0,"""","""","""","""","""","""","""","""","""","""","""","""","2021-08-17 18:04:35",206.47.105.162,"Mozilla/5.0 (Windows NT 10.0; Win64; x64) AppleWebKit/537.36 (KHTML, like Gecko) Chrome/92.0.4515.131 Safari/537.36",WebKit,Chrome,92.0.4515.131,Windows,10.0,5f461dd6c139dd6b46c7596cbd57cd79
231,1,"""","""","""","""","""",sampler,273,114063,0.0-6.0-267.0,"""","""","""","""","""","""","""","""","""","""","""","""","2021-08-17 18:04:35",206.47.105.162,"Mozilla/5.0 (Windows NT 10.0; Win64; x64) AppleWebKit/537.36 (KHTML, like Gecko) Chrome/92.0.4515.131 Safari/537.36",WebKit,Chrome,92.0.4515.131,Windows,10.0,5f461dd6c139dd6b46c7596cbd57cd79
231,1,"""","""","""","""","""",sampler,274,114064,0.0-6.0-268.0,"""","""","""","""","""","""","""","""","""","""","""","""","2021-08-17 18:04:35",206.47.105.162,"Mozilla/5.0 (Windows NT 10.0; Win64; x64) AppleWebKit/537.36 (KHTML, like Gecko) Chrome/92.0.4515.131 Safari/537.36",WebKit,Chrome,92.0.4515.131,Windows,10.0,5f461dd6c139dd6b46c7596cbd57cd79
231,1,"""","""","""","""","""",sampler,275,114064,0.0-6.0-269.0,"""","""","""","""","""","""","""","""","""","""","""","""","2021-08-17 18:04:35",206.47.105.162,"Mozilla/5.0 (Windows NT 10.0; Win64; x64) AppleWebKit/537.36 (KHTML, like Gecko) Chrome/92.0.4515.131 Safari/537.36",WebKit,Chrome,92.0.4515.131,Windows,10.0,5f461dd6c139dd6b46c7596cbd57cd79
231,1,"""","""","""","""","""",sampler,276,114064,0.0-6.0-270.0,"""","""","""","""","""","""","""","""","""","""","""","""","2021-08-17 18:04:35",206.47.105.162,"Mozilla/5.0 (Windows NT 10.0; Win64; x64) AppleWebKit/537.36 (KHTML, like Gecko) Chrome/92.0.4515.131 Safari/537.36",WebKit,Chrome,92.0.4515.131,Windows,10.0,5f461dd6c139dd6b46c7596cbd57cd79
231,1,"""","""","""","""","""",sampler,277,114064,0.0-6.0-271.0,"""","""","""","""","""","""","""","""","""","""","""","""","2021-08-17 18:04:35",206.47.105.162,"Mozilla/5.0 (Windows NT 10.0; Win64; x64) AppleWebKit/537.36 (KHTML, like Gecko) Chrome/92.0.4515.131 Safari/537.36",WebKit,Chrome,92.0.4515.131,Windows,10.0,5f461dd6c139dd6b46c7596cbd57cd79
231,1,"""","""","""","""","""",sampler,278,114064,0.0-6.0-272.0,"""","""","""","""","""","""","""","""","""","""","""","""","2021-08-17 18:04:35",206.47.105.162,"Mozilla/5.0 (Windows NT 10.0; Win64; x64) AppleWebKit/537.36 (KHTML, like Gecko) Chrome/92.0.4515.131 Safari/537.36",WebKit,Chrome,92.0.4515.131,Windows,10.0,5f461dd6c139dd6b46c7596cbd57cd79
