run_id,condition,success,timeout,failed_images,failed_audio,failed_video,trial_type,trial_index,time_elapsed,internal_node_id,rt,stimulus,key_press,responses,view_history,correct,image_click,points,sd,points2,total_earn,button_pressed,recorded_at,ip,user_agent,device,browser,browser_version,platform,platform_version,source_code_version
206,1,true,false,"""","""","""",preload,0,1071,0.0-0.0,"""","""","""","""","""","""","""","""","""","""","""","""","2021-08-13 21:23:12",134.215.190.226,"Mozilla/5.0 (Macintosh; Intel Mac OS X 10_15_7) AppleWebKit/537.36 (KHTML, like Gecko) Chrome/92.0.4515.131 Safari/537.36",Macintosh,Chrome,92.0.4515.131,"OS X",10_15_7,5f461dd6c139dd6b46c7596cbd57cd79
206,1,"""","""","""","""","""",html-keyboard-response,1,26887,0.0-1.0,25775,"<font size=15>Welcome to our experiment!</font><br><br><br><i> Press <b>space bar</b> to begin.</i>",32,"""","""","""","""","""","""","""","""","""","2021-08-13 21:23:12",134.215.190.226,"Mozilla/5.0 (Macintosh; Intel Mac OS X 10_15_7) AppleWebKit/537.36 (KHTML, like Gecko) Chrome/92.0.4515.131 Safari/537.36",Macintosh,Chrome,92.0.4515.131,"OS X",10_15_7,5f461dd6c139dd6b46c7596cbd57cd79
206,1,"""","""","""","""","""",survey-multi-choice,2,47410,0.0-2.0,20517,"""","""","{""Q0"":""Yes"",""Q1"":""Yes"",""Q2"":""Yes"",""Q3"":""Yes""}","""","""","""","""","""","""","""","""","2021-08-13 21:23:12",134.215.190.226,"Mozilla/5.0 (Macintosh; Intel Mac OS X 10_15_7) AppleWebKit/537.36 (KHTML, like Gecko) Chrome/92.0.4515.131 Safari/537.36",Macintosh,Chrome,92.0.4515.131,"OS X",10_15_7,5f461dd6c139dd6b46c7596cbd57cd79
206,1,"""","""","""","""","""",survey-html-form,3,68394,0.0-3.0,20976.300000000745,"""","""","{""gender"":""female"",""age"":""20"",""hand"":""right"",""mail"":""610795c7a6803ff41ecf23ec""}","""","""","""","""","""","""","""","""","2021-08-13 21:23:12",134.215.190.226,"Mozilla/5.0 (Macintosh; Intel Mac OS X 10_15_7) AppleWebKit/537.36 (KHTML, like Gecko) Chrome/92.0.4515.131 Safari/537.36",Macintosh,Chrome,92.0.4515.131,"OS X",10_15_7,5f461dd6c139dd6b46c7596cbd57cd79
206,1,true,"""","""","""","""",fullscreen,4,72960,0.0-4.0,"""","""","""","""","""","""","""","""","""","""","""","""","2021-08-13 21:23:12",134.215.190.226,"Mozilla/5.0 (Macintosh; Intel Mac OS X 10_15_7) AppleWebKit/537.36 (KHTML, like Gecko) Chrome/92.0.4515.131 Safari/537.36",Macintosh,Chrome,92.0.4515.131,"OS X",10_15_7,5f461dd6c139dd6b46c7596cbd57cd79
206,1,"""","""","""","""","""",multikey-instructions,5,283692,0.0-5.0,210727,"""","""","""","[{""page_index"":0,""viewing_time"":54348},{""page_index"":1,""viewing_time"":19731},{""page_index"":2,""viewing_time"":10899},{""page_index"":3,""viewing_time"":6426},{""page_index"":4,""viewing_time"":17187},{""page_index"":5,""viewing_time"":21571},{""page_index"":6,""viewing_time"":7568},{""page_index"":7,""viewing_time"":16136},{""page_index"":8,""viewing_time"":21641},{""page_index"":9,""viewing_time"":8447},{""page_index"":10,""viewing_time"":15722},{""page_index"":11,""viewing_time"":11051}]","""","""","""","""","""","""","""","2021-08-13 21:23:12",134.215.190.226,"Mozilla/5.0 (Macintosh; Intel Mac OS X 10_15_7) AppleWebKit/537.36 (KHTML, like Gecko) Chrome/92.0.4515.131 Safari/537.36",Macintosh,Chrome,92.0.4515.131,"OS X",10_15_7,5f461dd6c139dd6b46c7596cbd57cd79
206,1,"""","""","""","""","""",sampler,6,300255,0.0-6.0-0.0,16151,img/Cobalt.png,"""","""","""",false,-1,9.506284633363823,10,"""","""","""","2021-08-13 21:23:12",134.215.190.226,"Mozilla/5.0 (Macintosh; Intel Mac OS X 10_15_7) AppleWebKit/537.36 (KHTML, like Gecko) Chrome/92.0.4515.131 Safari/537.36",Macintosh,Chrome,92.0.4515.131,"OS X",10_15_7,5f461dd6c139dd6b46c7596cbd57cd79
206,1,"""","""","""","""","""",sampler,7,301603,0.0-6.0-1.0,936,img/Cobalt.png,"""","""","""",false,-1,7.016586572062186,10,"""","""","""","2021-08-13 21:23:12",134.215.190.226,"Mozilla/5.0 (Macintosh; Intel Mac OS X 10_15_7) AppleWebKit/537.36 (KHTML, like Gecko) Chrome/92.0.4515.131 Safari/537.36",Macintosh,Chrome,92.0.4515.131,"OS X",10_15_7,5f461dd6c139dd6b46c7596cbd57cd79
206,1,"""","""","""","""","""",sampler,8,302810,0.0-6.0-2.0,796,img/Cobalt.png,"""","""","""",false,-1,5.478142303687457,10,"""","""","""","2021-08-13 21:23:12",134.215.190.226,"Mozilla/5.0 (Macintosh; Intel Mac OS X 10_15_7) AppleWebKit/537.36 (KHTML, like Gecko) Chrome/92.0.4515.131 Safari/537.36",Macintosh,Chrome,92.0.4515.131,"OS X",10_15_7,5f461dd6c139dd6b46c7596cbd57cd79
206,1,"""","""","""","""","""",sampler,9,303539,0.0-6.0-3.0,318,img/Cobalt.png,"""","""","""",false,-1,12.705308456314253,10,"""","""","""","2021-08-13 21:23:12",134.215.190.226,"Mozilla/5.0 (Macintosh; Intel Mac OS X 10_15_7) AppleWebKit/537.36 (KHTML, like Gecko) Chrome/92.0.4515.131 Safari/537.36",Macintosh,Chrome,92.0.4515.131,"OS X",10_15_7,5f461dd6c139dd6b46c7596cbd57cd79
206,1,"""","""","""","""","""",sampler,10,307105,0.0-6.0-4.0,3157,img/Cobalt.png,"""","""","""",false,-1,-6.533716032986954,10,"""","""","""","2021-08-13 21:23:12",134.215.190.226,"Mozilla/5.0 (Macintosh; Intel Mac OS X 10_15_7) AppleWebKit/537.36 (KHTML, like Gecko) Chrome/92.0.4515.131 Safari/537.36",Macintosh,Chrome,92.0.4515.131,"OS X",10_15_7,5f461dd6c139dd6b46c7596cbd57cd79
206,1,"""","""","""","""","""",sampler,11,307108,0.0-6.0-5.0,"""","""","""","""","""","""","""","""","""","""","""","""","2021-08-13 21:23:12",134.215.190.226,"Mozilla/5.0 (Macintosh; Intel Mac OS X 10_15_7) AppleWebKit/537.36 (KHTML, like Gecko) Chrome/92.0.4515.131 Safari/537.36",Macintosh,Chrome,92.0.4515.131,"OS X",10_15_7,5f461dd6c139dd6b46c7596cbd57cd79
206,1,"""","""","""","""","""",sampler,12,307108,0.0-6.0-6.0,"""","""","""","""","""","""","""","""","""","""","""","""","2021-08-13 21:23:12",134.215.190.226,"Mozilla/5.0 (Macintosh; Intel Mac OS X 10_15_7) AppleWebKit/537.36 (KHTML, like Gecko) Chrome/92.0.4515.131 Safari/537.36",Macintosh,Chrome,92.0.4515.131,"OS X",10_15_7,5f461dd6c139dd6b46c7596cbd57cd79
206,1,"""","""","""","""","""",sampler,13,307108,0.0-6.0-7.0,"""","""","""","""","""","""","""","""","""","""","""","""","2021-08-13 21:23:12",134.215.190.226,"Mozilla/5.0 (Macintosh; Intel Mac OS X 10_15_7) AppleWebKit/537.36 (KHTML, like Gecko) Chrome/92.0.4515.131 Safari/537.36",Macintosh,Chrome,92.0.4515.131,"OS X",10_15_7,5f461dd6c139dd6b46c7596cbd57cd79
206,1,"""","""","""","""","""",sampler,14,307109,0.0-6.0-8.0,"""","""","""","""","""","""","""","""","""","""","""","""","2021-08-13 21:23:12",134.215.190.226,"Mozilla/5.0 (Macintosh; Intel Mac OS X 10_15_7) AppleWebKit/537.36 (KHTML, like Gecko) Chrome/92.0.4515.131 Safari/537.36",Macintosh,Chrome,92.0.4515.131,"OS X",10_15_7,5f461dd6c139dd6b46c7596cbd57cd79
206,1,"""","""","""","""","""",sampler,15,307109,0.0-6.0-9.0,"""","""","""","""","""","""","""","""","""","""","""","""","2021-08-13 21:23:12",134.215.190.226,"Mozilla/5.0 (Macintosh; Intel Mac OS X 10_15_7) AppleWebKit/537.36 (KHTML, like Gecko) Chrome/92.0.4515.131 Safari/537.36",Macintosh,Chrome,92.0.4515.131,"OS X",10_15_7,5f461dd6c139dd6b46c7596cbd57cd79
206,1,"""","""","""","""","""",sampler,16,307110,0.0-6.0-10.0,"""","""","""","""","""","""","""","""","""","""","""","""","2021-08-13 21:23:12",134.215.190.226,"Mozilla/5.0 (Macintosh; Intel Mac OS X 10_15_7) AppleWebKit/537.36 (KHTML, like Gecko) Chrome/92.0.4515.131 Safari/537.36",Macintosh,Chrome,92.0.4515.131,"OS X",10_15_7,5f461dd6c139dd6b46c7596cbd57cd79
206,1,"""","""","""","""","""",sampler,17,307110,0.0-6.0-11.0,"""","""","""","""","""","""","""","""","""","""","""","""","2021-08-13 21:23:12",134.215.190.226,"Mozilla/5.0 (Macintosh; Intel Mac OS X 10_15_7) AppleWebKit/537.36 (KHTML, like Gecko) Chrome/92.0.4515.131 Safari/537.36",Macintosh,Chrome,92.0.4515.131,"OS X",10_15_7,5f461dd6c139dd6b46c7596cbd57cd79
206,1,"""","""","""","""","""",sampler,18,307110,0.0-6.0-12.0,"""","""","""","""","""","""","""","""","""","""","""","""","2021-08-13 21:23:12",134.215.190.226,"Mozilla/5.0 (Macintosh; Intel Mac OS X 10_15_7) AppleWebKit/537.36 (KHTML, like Gecko) Chrome/92.0.4515.131 Safari/537.36",Macintosh,Chrome,92.0.4515.131,"OS X",10_15_7,5f461dd6c139dd6b46c7596cbd57cd79
206,1,"""","""","""","""","""",sampler,19,307110,0.0-6.0-13.0,"""","""","""","""","""","""","""","""","""","""","""","""","2021-08-13 21:23:12",134.215.190.226,"Mozilla/5.0 (Macintosh; Intel Mac OS X 10_15_7) AppleWebKit/537.36 (KHTML, like Gecko) Chrome/92.0.4515.131 Safari/537.36",Macintosh,Chrome,92.0.4515.131,"OS X",10_15_7,5f461dd6c139dd6b46c7596cbd57cd79
206,1,"""","""","""","""","""",sampler,20,307111,0.0-6.0-14.0,"""","""","""","""","""","""","""","""","""","""","""","""","2021-08-13 21:23:12",134.215.190.226,"Mozilla/5.0 (Macintosh; Intel Mac OS X 10_15_7) AppleWebKit/537.36 (KHTML, like Gecko) Chrome/92.0.4515.131 Safari/537.36",Macintosh,Chrome,92.0.4515.131,"OS X",10_15_7,5f461dd6c139dd6b46c7596cbd57cd79
206,1,"""","""","""","""","""",sampler,21,307111,0.0-6.0-15.0,"""","""","""","""","""","""","""","""","""","""","""","""","2021-08-13 21:23:12",134.215.190.226,"Mozilla/5.0 (Macintosh; Intel Mac OS X 10_15_7) AppleWebKit/537.36 (KHTML, like Gecko) Chrome/92.0.4515.131 Safari/537.36",Macintosh,Chrome,92.0.4515.131,"OS X",10_15_7,5f461dd6c139dd6b46c7596cbd57cd79
206,1,"""","""","""","""","""",sampler,22,307111,0.0-6.0-16.0,"""","""","""","""","""","""","""","""","""","""","""","""","2021-08-13 21:23:12",134.215.190.226,"Mozilla/5.0 (Macintosh; Intel Mac OS X 10_15_7) AppleWebKit/537.36 (KHTML, like Gecko) Chrome/92.0.4515.131 Safari/537.36",Macintosh,Chrome,92.0.4515.131,"OS X",10_15_7,5f461dd6c139dd6b46c7596cbd57cd79
206,1,"""","""","""","""","""",sampler,23,307111,0.0-6.0-17.0,"""","""","""","""","""","""","""","""","""","""","""","""","2021-08-13 21:23:12",134.215.190.226,"Mozilla/5.0 (Macintosh; Intel Mac OS X 10_15_7) AppleWebKit/537.36 (KHTML, like Gecko) Chrome/92.0.4515.131 Safari/537.36",Macintosh,Chrome,92.0.4515.131,"OS X",10_15_7,5f461dd6c139dd6b46c7596cbd57cd79
206,1,"""","""","""","""","""",sampler,24,307111,0.0-6.0-18.0,"""","""","""","""","""","""","""","""","""","""","""","""","2021-08-13 21:23:12",134.215.190.226,"Mozilla/5.0 (Macintosh; Intel Mac OS X 10_15_7) AppleWebKit/537.36 (KHTML, like Gecko) Chrome/92.0.4515.131 Safari/537.36",Macintosh,Chrome,92.0.4515.131,"OS X",10_15_7,5f461dd6c139dd6b46c7596cbd57cd79
206,1,"""","""","""","""","""",sampler,25,307112,0.0-6.0-19.0,"""","""","""","""","""","""","""","""","""","""","""","""","2021-08-13 21:23:12",134.215.190.226,"Mozilla/5.0 (Macintosh; Intel Mac OS X 10_15_7) AppleWebKit/537.36 (KHTML, like Gecko) Chrome/92.0.4515.131 Safari/537.36",Macintosh,Chrome,92.0.4515.131,"OS X",10_15_7,5f461dd6c139dd6b46c7596cbd57cd79
206,1,"""","""","""","""","""",sampler,26,307112,0.0-6.0-20.0,"""","""","""","""","""","""","""","""","""","""","""","""","2021-08-13 21:23:12",134.215.190.226,"Mozilla/5.0 (Macintosh; Intel Mac OS X 10_15_7) AppleWebKit/537.36 (KHTML, like Gecko) Chrome/92.0.4515.131 Safari/537.36",Macintosh,Chrome,92.0.4515.131,"OS X",10_15_7,5f461dd6c139dd6b46c7596cbd57cd79
206,1,"""","""","""","""","""",sampler,27,307112,0.0-6.0-21.0,"""","""","""","""","""","""","""","""","""","""","""","""","2021-08-13 21:23:12",134.215.190.226,"Mozilla/5.0 (Macintosh; Intel Mac OS X 10_15_7) AppleWebKit/537.36 (KHTML, like Gecko) Chrome/92.0.4515.131 Safari/537.36",Macintosh,Chrome,92.0.4515.131,"OS X",10_15_7,5f461dd6c139dd6b46c7596cbd57cd79
206,1,"""","""","""","""","""",sampler,28,307112,0.0-6.0-22.0,"""","""","""","""","""","""","""","""","""","""","""","""","2021-08-13 21:23:12",134.215.190.226,"Mozilla/5.0 (Macintosh; Intel Mac OS X 10_15_7) AppleWebKit/537.36 (KHTML, like Gecko) Chrome/92.0.4515.131 Safari/537.36",Macintosh,Chrome,92.0.4515.131,"OS X",10_15_7,5f461dd6c139dd6b46c7596cbd57cd79
206,1,"""","""","""","""","""",sampler,29,307112,0.0-6.0-23.0,"""","""","""","""","""","""","""","""","""","""","""","""","2021-08-13 21:23:12",134.215.190.226,"Mozilla/5.0 (Macintosh; Intel Mac OS X 10_15_7) AppleWebKit/537.36 (KHTML, like Gecko) Chrome/92.0.4515.131 Safari/537.36",Macintosh,Chrome,92.0.4515.131,"OS X",10_15_7,5f461dd6c139dd6b46c7596cbd57cd79
206,1,"""","""","""","""","""",sampler,30,307113,0.0-6.0-24.0,"""","""","""","""","""","""","""","""","""","""","""","""","2021-08-13 21:23:12",134.215.190.226,"Mozilla/5.0 (Macintosh; Intel Mac OS X 10_15_7) AppleWebKit/537.36 (KHTML, like Gecko) Chrome/92.0.4515.131 Safari/537.36",Macintosh,Chrome,92.0.4515.131,"OS X",10_15_7,5f461dd6c139dd6b46c7596cbd57cd79
206,1,"""","""","""","""","""",sampler,31,307113,0.0-6.0-25.0,"""","""","""","""","""","""","""","""","""","""","""","""","2021-08-13 21:23:12",134.215.190.226,"Mozilla/5.0 (Macintosh; Intel Mac OS X 10_15_7) AppleWebKit/537.36 (KHTML, like Gecko) Chrome/92.0.4515.131 Safari/537.36",Macintosh,Chrome,92.0.4515.131,"OS X",10_15_7,5f461dd6c139dd6b46c7596cbd57cd79
206,1,"""","""","""","""","""",sampler,32,307113,0.0-6.0-26.0,"""","""","""","""","""","""","""","""","""","""","""","""","2021-08-13 21:23:12",134.215.190.226,"Mozilla/5.0 (Macintosh; Intel Mac OS X 10_15_7) AppleWebKit/537.36 (KHTML, like Gecko) Chrome/92.0.4515.131 Safari/537.36",Macintosh,Chrome,92.0.4515.131,"OS X",10_15_7,5f461dd6c139dd6b46c7596cbd57cd79
206,1,"""","""","""","""","""",sampler,33,307113,0.0-6.0-27.0,"""","""","""","""","""","""","""","""","""","""","""","""","2021-08-13 21:23:12",134.215.190.226,"Mozilla/5.0 (Macintosh; Intel Mac OS X 10_15_7) AppleWebKit/537.36 (KHTML, like Gecko) Chrome/92.0.4515.131 Safari/537.36",Macintosh,Chrome,92.0.4515.131,"OS X",10_15_7,5f461dd6c139dd6b46c7596cbd57cd79
206,1,"""","""","""","""","""",sampler,34,307113,0.0-6.0-28.0,"""","""","""","""","""","""","""","""","""","""","""","""","2021-08-13 21:23:12",134.215.190.226,"Mozilla/5.0 (Macintosh; Intel Mac OS X 10_15_7) AppleWebKit/537.36 (KHTML, like Gecko) Chrome/92.0.4515.131 Safari/537.36",Macintosh,Chrome,92.0.4515.131,"OS X",10_15_7,5f461dd6c139dd6b46c7596cbd57cd79
206,1,"""","""","""","""","""",sampler,35,307114,0.0-6.0-29.0,"""","""","""","""","""","""","""","""","""","""","""","""","2021-08-13 21:23:12",134.215.190.226,"Mozilla/5.0 (Macintosh; Intel Mac OS X 10_15_7) AppleWebKit/537.36 (KHTML, like Gecko) Chrome/92.0.4515.131 Safari/537.36",Macintosh,Chrome,92.0.4515.131,"OS X",10_15_7,5f461dd6c139dd6b46c7596cbd57cd79
206,1,"""","""","""","""","""",sampler,36,307114,0.0-6.0-30.0,"""","""","""","""","""","""","""","""","""","""","""","""","2021-08-13 21:23:12",134.215.190.226,"Mozilla/5.0 (Macintosh; Intel Mac OS X 10_15_7) AppleWebKit/537.36 (KHTML, like Gecko) Chrome/92.0.4515.131 Safari/537.36",Macintosh,Chrome,92.0.4515.131,"OS X",10_15_7,5f461dd6c139dd6b46c7596cbd57cd79
206,1,"""","""","""","""","""",sampler,37,307114,0.0-6.0-31.0,"""","""","""","""","""","""","""","""","""","""","""","""","2021-08-13 21:23:12",134.215.190.226,"Mozilla/5.0 (Macintosh; Intel Mac OS X 10_15_7) AppleWebKit/537.36 (KHTML, like Gecko) Chrome/92.0.4515.131 Safari/537.36",Macintosh,Chrome,92.0.4515.131,"OS X",10_15_7,5f461dd6c139dd6b46c7596cbd57cd79
206,1,"""","""","""","""","""",sampler,38,307114,0.0-6.0-32.0,"""","""","""","""","""","""","""","""","""","""","""","""","2021-08-13 21:23:12",134.215.190.226,"Mozilla/5.0 (Macintosh; Intel Mac OS X 10_15_7) AppleWebKit/537.36 (KHTML, like Gecko) Chrome/92.0.4515.131 Safari/537.36",Macintosh,Chrome,92.0.4515.131,"OS X",10_15_7,5f461dd6c139dd6b46c7596cbd57cd79
206,1,"""","""","""","""","""",sampler,39,307114,0.0-6.0-33.0,"""","""","""","""","""","""","""","""","""","""","""","""","2021-08-13 21:23:12",134.215.190.226,"Mozilla/5.0 (Macintosh; Intel Mac OS X 10_15_7) AppleWebKit/537.36 (KHTML, like Gecko) Chrome/92.0.4515.131 Safari/537.36",Macintosh,Chrome,92.0.4515.131,"OS X",10_15_7,5f461dd6c139dd6b46c7596cbd57cd79
206,1,"""","""","""","""","""",sampler,40,307115,0.0-6.0-34.0,"""","""","""","""","""","""","""","""","""","""","""","""","2021-08-13 21:23:12",134.215.190.226,"Mozilla/5.0 (Macintosh; Intel Mac OS X 10_15_7) AppleWebKit/537.36 (KHTML, like Gecko) Chrome/92.0.4515.131 Safari/537.36",Macintosh,Chrome,92.0.4515.131,"OS X",10_15_7,5f461dd6c139dd6b46c7596cbd57cd79
206,1,"""","""","""","""","""",sampler,41,307115,0.0-6.0-35.0,"""","""","""","""","""","""","""","""","""","""","""","""","2021-08-13 21:23:12",134.215.190.226,"Mozilla/5.0 (Macintosh; Intel Mac OS X 10_15_7) AppleWebKit/537.36 (KHTML, like Gecko) Chrome/92.0.4515.131 Safari/537.36",Macintosh,Chrome,92.0.4515.131,"OS X",10_15_7,5f461dd6c139dd6b46c7596cbd57cd79
206,1,"""","""","""","""","""",sampler,42,307115,0.0-6.0-36.0,"""","""","""","""","""","""","""","""","""","""","""","""","2021-08-13 21:23:12",134.215.190.226,"Mozilla/5.0 (Macintosh; Intel Mac OS X 10_15_7) AppleWebKit/537.36 (KHTML, like Gecko) Chrome/92.0.4515.131 Safari/537.36",Macintosh,Chrome,92.0.4515.131,"OS X",10_15_7,5f461dd6c139dd6b46c7596cbd57cd79
206,1,"""","""","""","""","""",sampler,43,307115,0.0-6.0-37.0,"""","""","""","""","""","""","""","""","""","""","""","""","2021-08-13 21:23:12",134.215.190.226,"Mozilla/5.0 (Macintosh; Intel Mac OS X 10_15_7) AppleWebKit/537.36 (KHTML, like Gecko) Chrome/92.0.4515.131 Safari/537.36",Macintosh,Chrome,92.0.4515.131,"OS X",10_15_7,5f461dd6c139dd6b46c7596cbd57cd79
206,1,"""","""","""","""","""",sampler,44,307115,0.0-6.0-38.0,"""","""","""","""","""","""","""","""","""","""","""","""","2021-08-13 21:23:12",134.215.190.226,"Mozilla/5.0 (Macintosh; Intel Mac OS X 10_15_7) AppleWebKit/537.36 (KHTML, like Gecko) Chrome/92.0.4515.131 Safari/537.36",Macintosh,Chrome,92.0.4515.131,"OS X",10_15_7,5f461dd6c139dd6b46c7596cbd57cd79
206,1,"""","""","""","""","""",sampler,45,307115,0.0-6.0-39.0,"""","""","""","""","""","""","""","""","""","""","""","""","2021-08-13 21:23:12",134.215.190.226,"Mozilla/5.0 (Macintosh; Intel Mac OS X 10_15_7) AppleWebKit/537.36 (KHTML, like Gecko) Chrome/92.0.4515.131 Safari/537.36",Macintosh,Chrome,92.0.4515.131,"OS X",10_15_7,5f461dd6c139dd6b46c7596cbd57cd79
206,1,"""","""","""","""","""",sampler,46,307116,0.0-6.0-40.0,"""","""","""","""","""","""","""","""","""","""","""","""","2021-08-13 21:23:12",134.215.190.226,"Mozilla/5.0 (Macintosh; Intel Mac OS X 10_15_7) AppleWebKit/537.36 (KHTML, like Gecko) Chrome/92.0.4515.131 Safari/537.36",Macintosh,Chrome,92.0.4515.131,"OS X",10_15_7,5f461dd6c139dd6b46c7596cbd57cd79
206,1,"""","""","""","""","""",sampler,47,307116,0.0-6.0-41.0,"""","""","""","""","""","""","""","""","""","""","""","""","2021-08-13 21:23:12",134.215.190.226,"Mozilla/5.0 (Macintosh; Intel Mac OS X 10_15_7) AppleWebKit/537.36 (KHTML, like Gecko) Chrome/92.0.4515.131 Safari/537.36",Macintosh,Chrome,92.0.4515.131,"OS X",10_15_7,5f461dd6c139dd6b46c7596cbd57cd79
206,1,"""","""","""","""","""",sampler,48,307116,0.0-6.0-42.0,"""","""","""","""","""","""","""","""","""","""","""","""","2021-08-13 21:23:12",134.215.190.226,"Mozilla/5.0 (Macintosh; Intel Mac OS X 10_15_7) AppleWebKit/537.36 (KHTML, like Gecko) Chrome/92.0.4515.131 Safari/537.36",Macintosh,Chrome,92.0.4515.131,"OS X",10_15_7,5f461dd6c139dd6b46c7596cbd57cd79
206,1,"""","""","""","""","""",sampler,49,307116,0.0-6.0-43.0,"""","""","""","""","""","""","""","""","""","""","""","""","2021-08-13 21:23:12",134.215.190.226,"Mozilla/5.0 (Macintosh; Intel Mac OS X 10_15_7) AppleWebKit/537.36 (KHTML, like Gecko) Chrome/92.0.4515.131 Safari/537.36",Macintosh,Chrome,92.0.4515.131,"OS X",10_15_7,5f461dd6c139dd6b46c7596cbd57cd79
206,1,"""","""","""","""","""",sampler,50,307116,0.0-6.0-44.0,"""","""","""","""","""","""","""","""","""","""","""","""","2021-08-13 21:23:12",134.215.190.226,"Mozilla/5.0 (Macintosh; Intel Mac OS X 10_15_7) AppleWebKit/537.36 (KHTML, like Gecko) Chrome/92.0.4515.131 Safari/537.36",Macintosh,Chrome,92.0.4515.131,"OS X",10_15_7,5f461dd6c139dd6b46c7596cbd57cd79
206,1,"""","""","""","""","""",sampler,51,307116,0.0-6.0-45.0,"""","""","""","""","""","""","""","""","""","""","""","""","2021-08-13 21:23:12",134.215.190.226,"Mozilla/5.0 (Macintosh; Intel Mac OS X 10_15_7) AppleWebKit/537.36 (KHTML, like Gecko) Chrome/92.0.4515.131 Safari/537.36",Macintosh,Chrome,92.0.4515.131,"OS X",10_15_7,5f461dd6c139dd6b46c7596cbd57cd79
206,1,"""","""","""","""","""",sampler,52,307116,0.0-6.0-46.0,"""","""","""","""","""","""","""","""","""","""","""","""","2021-08-13 21:23:12",134.215.190.226,"Mozilla/5.0 (Macintosh; Intel Mac OS X 10_15_7) AppleWebKit/537.36 (KHTML, like Gecko) Chrome/92.0.4515.131 Safari/537.36",Macintosh,Chrome,92.0.4515.131,"OS X",10_15_7,5f461dd6c139dd6b46c7596cbd57cd79
206,1,"""","""","""","""","""",sampler,53,307117,0.0-6.0-47.0,"""","""","""","""","""","""","""","""","""","""","""","""","2021-08-13 21:23:12",134.215.190.226,"Mozilla/5.0 (Macintosh; Intel Mac OS X 10_15_7) AppleWebKit/537.36 (KHTML, like Gecko) Chrome/92.0.4515.131 Safari/537.36",Macintosh,Chrome,92.0.4515.131,"OS X",10_15_7,5f461dd6c139dd6b46c7596cbd57cd79
206,1,"""","""","""","""","""",sampler,54,307117,0.0-6.0-48.0,"""","""","""","""","""","""","""","""","""","""","""","""","2021-08-13 21:23:12",134.215.190.226,"Mozilla/5.0 (Macintosh; Intel Mac OS X 10_15_7) AppleWebKit/537.36 (KHTML, like Gecko) Chrome/92.0.4515.131 Safari/537.36",Macintosh,Chrome,92.0.4515.131,"OS X",10_15_7,5f461dd6c139dd6b46c7596cbd57cd79
206,1,"""","""","""","""","""",sampler,55,307117,0.0-6.0-49.0,"""","""","""","""","""","""","""","""","""","""","""","""","2021-08-13 21:23:12",134.215.190.226,"Mozilla/5.0 (Macintosh; Intel Mac OS X 10_15_7) AppleWebKit/537.36 (KHTML, like Gecko) Chrome/92.0.4515.131 Safari/537.36",Macintosh,Chrome,92.0.4515.131,"OS X",10_15_7,5f461dd6c139dd6b46c7596cbd57cd79
206,1,"""","""","""","""","""",sampler,56,307117,0.0-6.0-50.0,"""","""","""","""","""","""","""","""","""","""","""","""","2021-08-13 21:23:12",134.215.190.226,"Mozilla/5.0 (Macintosh; Intel Mac OS X 10_15_7) AppleWebKit/537.36 (KHTML, like Gecko) Chrome/92.0.4515.131 Safari/537.36",Macintosh,Chrome,92.0.4515.131,"OS X",10_15_7,5f461dd6c139dd6b46c7596cbd57cd79
206,1,"""","""","""","""","""",sampler,57,307117,0.0-6.0-51.0,"""","""","""","""","""","""","""","""","""","""","""","""","2021-08-13 21:23:12",134.215.190.226,"Mozilla/5.0 (Macintosh; Intel Mac OS X 10_15_7) AppleWebKit/537.36 (KHTML, like Gecko) Chrome/92.0.4515.131 Safari/537.36",Macintosh,Chrome,92.0.4515.131,"OS X",10_15_7,5f461dd6c139dd6b46c7596cbd57cd79
206,1,"""","""","""","""","""",sampler,58,307117,0.0-6.0-52.0,"""","""","""","""","""","""","""","""","""","""","""","""","2021-08-13 21:23:12",134.215.190.226,"Mozilla/5.0 (Macintosh; Intel Mac OS X 10_15_7) AppleWebKit/537.36 (KHTML, like Gecko) Chrome/92.0.4515.131 Safari/537.36",Macintosh,Chrome,92.0.4515.131,"OS X",10_15_7,5f461dd6c139dd6b46c7596cbd57cd79
206,1,"""","""","""","""","""",sampler,59,307118,0.0-6.0-53.0,"""","""","""","""","""","""","""","""","""","""","""","""","2021-08-13 21:23:12",134.215.190.226,"Mozilla/5.0 (Macintosh; Intel Mac OS X 10_15_7) AppleWebKit/537.36 (KHTML, like Gecko) Chrome/92.0.4515.131 Safari/537.36",Macintosh,Chrome,92.0.4515.131,"OS X",10_15_7,5f461dd6c139dd6b46c7596cbd57cd79
206,1,"""","""","""","""","""",sampler,60,307118,0.0-6.0-54.0,"""","""","""","""","""","""","""","""","""","""","""","""","2021-08-13 21:23:12",134.215.190.226,"Mozilla/5.0 (Macintosh; Intel Mac OS X 10_15_7) AppleWebKit/537.36 (KHTML, like Gecko) Chrome/92.0.4515.131 Safari/537.36",Macintosh,Chrome,92.0.4515.131,"OS X",10_15_7,5f461dd6c139dd6b46c7596cbd57cd79
206,1,"""","""","""","""","""",sampler,61,307118,0.0-6.0-55.0,"""","""","""","""","""","""","""","""","""","""","""","""","2021-08-13 21:23:12",134.215.190.226,"Mozilla/5.0 (Macintosh; Intel Mac OS X 10_15_7) AppleWebKit/537.36 (KHTML, like Gecko) Chrome/92.0.4515.131 Safari/537.36",Macintosh,Chrome,92.0.4515.131,"OS X",10_15_7,5f461dd6c139dd6b46c7596cbd57cd79
206,1,"""","""","""","""","""",sampler,62,307118,0.0-6.0-56.0,"""","""","""","""","""","""","""","""","""","""","""","""","2021-08-13 21:23:12",134.215.190.226,"Mozilla/5.0 (Macintosh; Intel Mac OS X 10_15_7) AppleWebKit/537.36 (KHTML, like Gecko) Chrome/92.0.4515.131 Safari/537.36",Macintosh,Chrome,92.0.4515.131,"OS X",10_15_7,5f461dd6c139dd6b46c7596cbd57cd79
206,1,"""","""","""","""","""",sampler,63,307118,0.0-6.0-57.0,"""","""","""","""","""","""","""","""","""","""","""","""","2021-08-13 21:23:12",134.215.190.226,"Mozilla/5.0 (Macintosh; Intel Mac OS X 10_15_7) AppleWebKit/537.36 (KHTML, like Gecko) Chrome/92.0.4515.131 Safari/537.36",Macintosh,Chrome,92.0.4515.131,"OS X",10_15_7,5f461dd6c139dd6b46c7596cbd57cd79
206,1,"""","""","""","""","""",sampler,64,307118,0.0-6.0-58.0,"""","""","""","""","""","""","""","""","""","""","""","""","2021-08-13 21:23:12",134.215.190.226,"Mozilla/5.0 (Macintosh; Intel Mac OS X 10_15_7) AppleWebKit/537.36 (KHTML, like Gecko) Chrome/92.0.4515.131 Safari/537.36",Macintosh,Chrome,92.0.4515.131,"OS X",10_15_7,5f461dd6c139dd6b46c7596cbd57cd79
206,1,"""","""","""","""","""",sampler,65,307118,0.0-6.0-59.0,"""","""","""","""","""","""","""","""","""","""","""","""","2021-08-13 21:23:12",134.215.190.226,"Mozilla/5.0 (Macintosh; Intel Mac OS X 10_15_7) AppleWebKit/537.36 (KHTML, like Gecko) Chrome/92.0.4515.131 Safari/537.36",Macintosh,Chrome,92.0.4515.131,"OS X",10_15_7,5f461dd6c139dd6b46c7596cbd57cd79
206,1,"""","""","""","""","""",sampler,66,307119,0.0-6.0-60.0,"""","""","""","""","""","""","""","""","""","""","""","""","2021-08-13 21:23:12",134.215.190.226,"Mozilla/5.0 (Macintosh; Intel Mac OS X 10_15_7) AppleWebKit/537.36 (KHTML, like Gecko) Chrome/92.0.4515.131 Safari/537.36",Macintosh,Chrome,92.0.4515.131,"OS X",10_15_7,5f461dd6c139dd6b46c7596cbd57cd79
206,1,"""","""","""","""","""",sampler,67,307119,0.0-6.0-61.0,"""","""","""","""","""","""","""","""","""","""","""","""","2021-08-13 21:23:12",134.215.190.226,"Mozilla/5.0 (Macintosh; Intel Mac OS X 10_15_7) AppleWebKit/537.36 (KHTML, like Gecko) Chrome/92.0.4515.131 Safari/537.36",Macintosh,Chrome,92.0.4515.131,"OS X",10_15_7,5f461dd6c139dd6b46c7596cbd57cd79
206,1,"""","""","""","""","""",sampler,68,307119,0.0-6.0-62.0,"""","""","""","""","""","""","""","""","""","""","""","""","2021-08-13 21:23:12",134.215.190.226,"Mozilla/5.0 (Macintosh; Intel Mac OS X 10_15_7) AppleWebKit/537.36 (KHTML, like Gecko) Chrome/92.0.4515.131 Safari/537.36",Macintosh,Chrome,92.0.4515.131,"OS X",10_15_7,5f461dd6c139dd6b46c7596cbd57cd79
206,1,"""","""","""","""","""",sampler,69,307119,0.0-6.0-63.0,"""","""","""","""","""","""","""","""","""","""","""","""","2021-08-13 21:23:12",134.215.190.226,"Mozilla/5.0 (Macintosh; Intel Mac OS X 10_15_7) AppleWebKit/537.36 (KHTML, like Gecko) Chrome/92.0.4515.131 Safari/537.36",Macintosh,Chrome,92.0.4515.131,"OS X",10_15_7,5f461dd6c139dd6b46c7596cbd57cd79
206,1,"""","""","""","""","""",sampler,70,307121,0.0-6.0-64.0,"""","""","""","""","""","""","""","""","""","""","""","""","2021-08-13 21:23:12",134.215.190.226,"Mozilla/5.0 (Macintosh; Intel Mac OS X 10_15_7) AppleWebKit/537.36 (KHTML, like Gecko) Chrome/92.0.4515.131 Safari/537.36",Macintosh,Chrome,92.0.4515.131,"OS X",10_15_7,5f461dd6c139dd6b46c7596cbd57cd79
206,1,"""","""","""","""","""",sampler,71,307121,0.0-6.0-65.0,"""","""","""","""","""","""","""","""","""","""","""","""","2021-08-13 21:23:12",134.215.190.226,"Mozilla/5.0 (Macintosh; Intel Mac OS X 10_15_7) AppleWebKit/537.36 (KHTML, like Gecko) Chrome/92.0.4515.131 Safari/537.36",Macintosh,Chrome,92.0.4515.131,"OS X",10_15_7,5f461dd6c139dd6b46c7596cbd57cd79
206,1,"""","""","""","""","""",sampler,72,307121,0.0-6.0-66.0,"""","""","""","""","""","""","""","""","""","""","""","""","2021-08-13 21:23:12",134.215.190.226,"Mozilla/5.0 (Macintosh; Intel Mac OS X 10_15_7) AppleWebKit/537.36 (KHTML, like Gecko) Chrome/92.0.4515.131 Safari/537.36",Macintosh,Chrome,92.0.4515.131,"OS X",10_15_7,5f461dd6c139dd6b46c7596cbd57cd79
206,1,"""","""","""","""","""",sampler,73,307121,0.0-6.0-67.0,"""","""","""","""","""","""","""","""","""","""","""","""","2021-08-13 21:23:12",134.215.190.226,"Mozilla/5.0 (Macintosh; Intel Mac OS X 10_15_7) AppleWebKit/537.36 (KHTML, like Gecko) Chrome/92.0.4515.131 Safari/537.36",Macintosh,Chrome,92.0.4515.131,"OS X",10_15_7,5f461dd6c139dd6b46c7596cbd57cd79
206,1,"""","""","""","""","""",sampler,74,307121,0.0-6.0-68.0,"""","""","""","""","""","""","""","""","""","""","""","""","2021-08-13 21:23:12",134.215.190.226,"Mozilla/5.0 (Macintosh; Intel Mac OS X 10_15_7) AppleWebKit/537.36 (KHTML, like Gecko) Chrome/92.0.4515.131 Safari/537.36",Macintosh,Chrome,92.0.4515.131,"OS X",10_15_7,5f461dd6c139dd6b46c7596cbd57cd79
206,1,"""","""","""","""","""",sampler,75,307121,0.0-6.0-69.0,"""","""","""","""","""","""","""","""","""","""","""","""","2021-08-13 21:23:12",134.215.190.226,"Mozilla/5.0 (Macintosh; Intel Mac OS X 10_15_7) AppleWebKit/537.36 (KHTML, like Gecko) Chrome/92.0.4515.131 Safari/537.36",Macintosh,Chrome,92.0.4515.131,"OS X",10_15_7,5f461dd6c139dd6b46c7596cbd57cd79
206,1,"""","""","""","""","""",sampler,76,307121,0.0-6.0-70.0,"""","""","""","""","""","""","""","""","""","""","""","""","2021-08-13 21:23:12",134.215.190.226,"Mozilla/5.0 (Macintosh; Intel Mac OS X 10_15_7) AppleWebKit/537.36 (KHTML, like Gecko) Chrome/92.0.4515.131 Safari/537.36",Macintosh,Chrome,92.0.4515.131,"OS X",10_15_7,5f461dd6c139dd6b46c7596cbd57cd79
206,1,"""","""","""","""","""",sampler,77,307122,0.0-6.0-71.0,"""","""","""","""","""","""","""","""","""","""","""","""","2021-08-13 21:23:12",134.215.190.226,"Mozilla/5.0 (Macintosh; Intel Mac OS X 10_15_7) AppleWebKit/537.36 (KHTML, like Gecko) Chrome/92.0.4515.131 Safari/537.36",Macintosh,Chrome,92.0.4515.131,"OS X",10_15_7,5f461dd6c139dd6b46c7596cbd57cd79
206,1,"""","""","""","""","""",sampler,78,307122,0.0-6.0-72.0,"""","""","""","""","""","""","""","""","""","""","""","""","2021-08-13 21:23:12",134.215.190.226,"Mozilla/5.0 (Macintosh; Intel Mac OS X 10_15_7) AppleWebKit/537.36 (KHTML, like Gecko) Chrome/92.0.4515.131 Safari/537.36",Macintosh,Chrome,92.0.4515.131,"OS X",10_15_7,5f461dd6c139dd6b46c7596cbd57cd79
206,1,"""","""","""","""","""",sampler,79,307123,0.0-6.0-73.0,"""","""","""","""","""","""","""","""","""","""","""","""","2021-08-13 21:23:12",134.215.190.226,"Mozilla/5.0 (Macintosh; Intel Mac OS X 10_15_7) AppleWebKit/537.36 (KHTML, like Gecko) Chrome/92.0.4515.131 Safari/537.36",Macintosh,Chrome,92.0.4515.131,"OS X",10_15_7,5f461dd6c139dd6b46c7596cbd57cd79
206,1,"""","""","""","""","""",sampler,80,307124,0.0-6.0-74.0,"""","""","""","""","""","""","""","""","""","""","""","""","2021-08-13 21:23:12",134.215.190.226,"Mozilla/5.0 (Macintosh; Intel Mac OS X 10_15_7) AppleWebKit/537.36 (KHTML, like Gecko) Chrome/92.0.4515.131 Safari/537.36",Macintosh,Chrome,92.0.4515.131,"OS X",10_15_7,5f461dd6c139dd6b46c7596cbd57cd79
206,1,"""","""","""","""","""",sampler,81,307124,0.0-6.0-75.0,"""","""","""","""","""","""","""","""","""","""","""","""","2021-08-13 21:23:12",134.215.190.226,"Mozilla/5.0 (Macintosh; Intel Mac OS X 10_15_7) AppleWebKit/537.36 (KHTML, like Gecko) Chrome/92.0.4515.131 Safari/537.36",Macintosh,Chrome,92.0.4515.131,"OS X",10_15_7,5f461dd6c139dd6b46c7596cbd57cd79
206,1,"""","""","""","""","""",sampler,82,307124,0.0-6.0-76.0,"""","""","""","""","""","""","""","""","""","""","""","""","2021-08-13 21:23:12",134.215.190.226,"Mozilla/5.0 (Macintosh; Intel Mac OS X 10_15_7) AppleWebKit/537.36 (KHTML, like Gecko) Chrome/92.0.4515.131 Safari/537.36",Macintosh,Chrome,92.0.4515.131,"OS X",10_15_7,5f461dd6c139dd6b46c7596cbd57cd79
206,1,"""","""","""","""","""",sampler,83,307124,0.0-6.0-77.0,"""","""","""","""","""","""","""","""","""","""","""","""","2021-08-13 21:23:12",134.215.190.226,"Mozilla/5.0 (Macintosh; Intel Mac OS X 10_15_7) AppleWebKit/537.36 (KHTML, like Gecko) Chrome/92.0.4515.131 Safari/537.36",Macintosh,Chrome,92.0.4515.131,"OS X",10_15_7,5f461dd6c139dd6b46c7596cbd57cd79
206,1,"""","""","""","""","""",sampler,84,307124,0.0-6.0-78.0,"""","""","""","""","""","""","""","""","""","""","""","""","2021-08-13 21:23:12",134.215.190.226,"Mozilla/5.0 (Macintosh; Intel Mac OS X 10_15_7) AppleWebKit/537.36 (KHTML, like Gecko) Chrome/92.0.4515.131 Safari/537.36",Macintosh,Chrome,92.0.4515.131,"OS X",10_15_7,5f461dd6c139dd6b46c7596cbd57cd79
206,1,"""","""","""","""","""",sampler,85,307125,0.0-6.0-79.0,"""","""","""","""","""","""","""","""","""","""","""","""","2021-08-13 21:23:12",134.215.190.226,"Mozilla/5.0 (Macintosh; Intel Mac OS X 10_15_7) AppleWebKit/537.36 (KHTML, like Gecko) Chrome/92.0.4515.131 Safari/537.36",Macintosh,Chrome,92.0.4515.131,"OS X",10_15_7,5f461dd6c139dd6b46c7596cbd57cd79
206,1,"""","""","""","""","""",sampler,86,307125,0.0-6.0-80.0,"""","""","""","""","""","""","""","""","""","""","""","""","2021-08-13 21:23:12",134.215.190.226,"Mozilla/5.0 (Macintosh; Intel Mac OS X 10_15_7) AppleWebKit/537.36 (KHTML, like Gecko) Chrome/92.0.4515.131 Safari/537.36",Macintosh,Chrome,92.0.4515.131,"OS X",10_15_7,5f461dd6c139dd6b46c7596cbd57cd79
206,1,"""","""","""","""","""",sampler,87,307125,0.0-6.0-81.0,"""","""","""","""","""","""","""","""","""","""","""","""","2021-08-13 21:23:12",134.215.190.226,"Mozilla/5.0 (Macintosh; Intel Mac OS X 10_15_7) AppleWebKit/537.36 (KHTML, like Gecko) Chrome/92.0.4515.131 Safari/537.36",Macintosh,Chrome,92.0.4515.131,"OS X",10_15_7,5f461dd6c139dd6b46c7596cbd57cd79
206,1,"""","""","""","""","""",sampler,88,307125,0.0-6.0-82.0,"""","""","""","""","""","""","""","""","""","""","""","""","2021-08-13 21:23:12",134.215.190.226,"Mozilla/5.0 (Macintosh; Intel Mac OS X 10_15_7) AppleWebKit/537.36 (KHTML, like Gecko) Chrome/92.0.4515.131 Safari/537.36",Macintosh,Chrome,92.0.4515.131,"OS X",10_15_7,5f461dd6c139dd6b46c7596cbd57cd79
206,1,"""","""","""","""","""",sampler,89,307125,0.0-6.0-83.0,"""","""","""","""","""","""","""","""","""","""","""","""","2021-08-13 21:23:12",134.215.190.226,"Mozilla/5.0 (Macintosh; Intel Mac OS X 10_15_7) AppleWebKit/537.36 (KHTML, like Gecko) Chrome/92.0.4515.131 Safari/537.36",Macintosh,Chrome,92.0.4515.131,"OS X",10_15_7,5f461dd6c139dd6b46c7596cbd57cd79
206,1,"""","""","""","""","""",sampler,90,307125,0.0-6.0-84.0,"""","""","""","""","""","""","""","""","""","""","""","""","2021-08-13 21:23:12",134.215.190.226,"Mozilla/5.0 (Macintosh; Intel Mac OS X 10_15_7) AppleWebKit/537.36 (KHTML, like Gecko) Chrome/92.0.4515.131 Safari/537.36",Macintosh,Chrome,92.0.4515.131,"OS X",10_15_7,5f461dd6c139dd6b46c7596cbd57cd79
206,1,"""","""","""","""","""",sampler,91,307125,0.0-6.0-85.0,"""","""","""","""","""","""","""","""","""","""","""","""","2021-08-13 21:23:12",134.215.190.226,"Mozilla/5.0 (Macintosh; Intel Mac OS X 10_15_7) AppleWebKit/537.36 (KHTML, like Gecko) Chrome/92.0.4515.131 Safari/537.36",Macintosh,Chrome,92.0.4515.131,"OS X",10_15_7,5f461dd6c139dd6b46c7596cbd57cd79
206,1,"""","""","""","""","""",sampler,92,307126,0.0-6.0-86.0,"""","""","""","""","""","""","""","""","""","""","""","""","2021-08-13 21:23:12",134.215.190.226,"Mozilla/5.0 (Macintosh; Intel Mac OS X 10_15_7) AppleWebKit/537.36 (KHTML, like Gecko) Chrome/92.0.4515.131 Safari/537.36",Macintosh,Chrome,92.0.4515.131,"OS X",10_15_7,5f461dd6c139dd6b46c7596cbd57cd79
206,1,"""","""","""","""","""",sampler,93,307126,0.0-6.0-87.0,"""","""","""","""","""","""","""","""","""","""","""","""","2021-08-13 21:23:12",134.215.190.226,"Mozilla/5.0 (Macintosh; Intel Mac OS X 10_15_7) AppleWebKit/537.36 (KHTML, like Gecko) Chrome/92.0.4515.131 Safari/537.36",Macintosh,Chrome,92.0.4515.131,"OS X",10_15_7,5f461dd6c139dd6b46c7596cbd57cd79
206,1,"""","""","""","""","""",sampler,94,307126,0.0-6.0-88.0,"""","""","""","""","""","""","""","""","""","""","""","""","2021-08-13 21:23:12",134.215.190.226,"Mozilla/5.0 (Macintosh; Intel Mac OS X 10_15_7) AppleWebKit/537.36 (KHTML, like Gecko) Chrome/92.0.4515.131 Safari/537.36",Macintosh,Chrome,92.0.4515.131,"OS X",10_15_7,5f461dd6c139dd6b46c7596cbd57cd79
206,1,"""","""","""","""","""",sampler,95,307126,0.0-6.0-89.0,"""","""","""","""","""","""","""","""","""","""","""","""","2021-08-13 21:23:12",134.215.190.226,"Mozilla/5.0 (Macintosh; Intel Mac OS X 10_15_7) AppleWebKit/537.36 (KHTML, like Gecko) Chrome/92.0.4515.131 Safari/537.36",Macintosh,Chrome,92.0.4515.131,"OS X",10_15_7,5f461dd6c139dd6b46c7596cbd57cd79
206,1,"""","""","""","""","""",sampler,96,307126,0.0-6.0-90.0,"""","""","""","""","""","""","""","""","""","""","""","""","2021-08-13 21:23:12",134.215.190.226,"Mozilla/5.0 (Macintosh; Intel Mac OS X 10_15_7) AppleWebKit/537.36 (KHTML, like Gecko) Chrome/92.0.4515.131 Safari/537.36",Macintosh,Chrome,92.0.4515.131,"OS X",10_15_7,5f461dd6c139dd6b46c7596cbd57cd79
206,1,"""","""","""","""","""",sampler,97,307126,0.0-6.0-91.0,"""","""","""","""","""","""","""","""","""","""","""","""","2021-08-13 21:23:12",134.215.190.226,"Mozilla/5.0 (Macintosh; Intel Mac OS X 10_15_7) AppleWebKit/537.36 (KHTML, like Gecko) Chrome/92.0.4515.131 Safari/537.36",Macintosh,Chrome,92.0.4515.131,"OS X",10_15_7,5f461dd6c139dd6b46c7596cbd57cd79
206,1,"""","""","""","""","""",sampler,98,307126,0.0-6.0-92.0,"""","""","""","""","""","""","""","""","""","""","""","""","2021-08-13 21:23:12",134.215.190.226,"Mozilla/5.0 (Macintosh; Intel Mac OS X 10_15_7) AppleWebKit/537.36 (KHTML, like Gecko) Chrome/92.0.4515.131 Safari/537.36",Macintosh,Chrome,92.0.4515.131,"OS X",10_15_7,5f461dd6c139dd6b46c7596cbd57cd79
206,1,"""","""","""","""","""",sampler,99,307126,0.0-6.0-93.0,"""","""","""","""","""","""","""","""","""","""","""","""","2021-08-13 21:23:12",134.215.190.226,"Mozilla/5.0 (Macintosh; Intel Mac OS X 10_15_7) AppleWebKit/537.36 (KHTML, like Gecko) Chrome/92.0.4515.131 Safari/537.36",Macintosh,Chrome,92.0.4515.131,"OS X",10_15_7,5f461dd6c139dd6b46c7596cbd57cd79
206,1,"""","""","""","""","""",sampler,100,307127,0.0-6.0-94.0,"""","""","""","""","""","""","""","""","""","""","""","""","2021-08-13 21:23:12",134.215.190.226,"Mozilla/5.0 (Macintosh; Intel Mac OS X 10_15_7) AppleWebKit/537.36 (KHTML, like Gecko) Chrome/92.0.4515.131 Safari/537.36",Macintosh,Chrome,92.0.4515.131,"OS X",10_15_7,5f461dd6c139dd6b46c7596cbd57cd79
206,1,"""","""","""","""","""",sampler,101,307127,0.0-6.0-95.0,"""","""","""","""","""","""","""","""","""","""","""","""","2021-08-13 21:23:12",134.215.190.226,"Mozilla/5.0 (Macintosh; Intel Mac OS X 10_15_7) AppleWebKit/537.36 (KHTML, like Gecko) Chrome/92.0.4515.131 Safari/537.36",Macintosh,Chrome,92.0.4515.131,"OS X",10_15_7,5f461dd6c139dd6b46c7596cbd57cd79
206,1,"""","""","""","""","""",sampler,102,307127,0.0-6.0-96.0,"""","""","""","""","""","""","""","""","""","""","""","""","2021-08-13 21:23:12",134.215.190.226,"Mozilla/5.0 (Macintosh; Intel Mac OS X 10_15_7) AppleWebKit/537.36 (KHTML, like Gecko) Chrome/92.0.4515.131 Safari/537.36",Macintosh,Chrome,92.0.4515.131,"OS X",10_15_7,5f461dd6c139dd6b46c7596cbd57cd79
206,1,"""","""","""","""","""",sampler,103,307127,0.0-6.0-97.0,"""","""","""","""","""","""","""","""","""","""","""","""","2021-08-13 21:23:12",134.215.190.226,"Mozilla/5.0 (Macintosh; Intel Mac OS X 10_15_7) AppleWebKit/537.36 (KHTML, like Gecko) Chrome/92.0.4515.131 Safari/537.36",Macintosh,Chrome,92.0.4515.131,"OS X",10_15_7,5f461dd6c139dd6b46c7596cbd57cd79
206,1,"""","""","""","""","""",sampler,104,307127,0.0-6.0-98.0,"""","""","""","""","""","""","""","""","""","""","""","""","2021-08-13 21:23:12",134.215.190.226,"Mozilla/5.0 (Macintosh; Intel Mac OS X 10_15_7) AppleWebKit/537.36 (KHTML, like Gecko) Chrome/92.0.4515.131 Safari/537.36",Macintosh,Chrome,92.0.4515.131,"OS X",10_15_7,5f461dd6c139dd6b46c7596cbd57cd79
206,1,"""","""","""","""","""",sampler,105,307127,0.0-6.0-99.0,"""","""","""","""","""","""","""","""","""","""","""","""","2021-08-13 21:23:12",134.215.190.226,"Mozilla/5.0 (Macintosh; Intel Mac OS X 10_15_7) AppleWebKit/537.36 (KHTML, like Gecko) Chrome/92.0.4515.131 Safari/537.36",Macintosh,Chrome,92.0.4515.131,"OS X",10_15_7,5f461dd6c139dd6b46c7596cbd57cd79
206,1,"""","""","""","""","""",sampler,106,307127,0.0-6.0-100.0,"""","""","""","""","""","""","""","""","""","""","""","""","2021-08-13 21:23:12",134.215.190.226,"Mozilla/5.0 (Macintosh; Intel Mac OS X 10_15_7) AppleWebKit/537.36 (KHTML, like Gecko) Chrome/92.0.4515.131 Safari/537.36",Macintosh,Chrome,92.0.4515.131,"OS X",10_15_7,5f461dd6c139dd6b46c7596cbd57cd79
206,1,"""","""","""","""","""",sampler,107,307128,0.0-6.0-101.0,"""","""","""","""","""","""","""","""","""","""","""","""","2021-08-13 21:23:12",134.215.190.226,"Mozilla/5.0 (Macintosh; Intel Mac OS X 10_15_7) AppleWebKit/537.36 (KHTML, like Gecko) Chrome/92.0.4515.131 Safari/537.36",Macintosh,Chrome,92.0.4515.131,"OS X",10_15_7,5f461dd6c139dd6b46c7596cbd57cd79
206,1,"""","""","""","""","""",sampler,108,307128,0.0-6.0-102.0,"""","""","""","""","""","""","""","""","""","""","""","""","2021-08-13 21:23:12",134.215.190.226,"Mozilla/5.0 (Macintosh; Intel Mac OS X 10_15_7) AppleWebKit/537.36 (KHTML, like Gecko) Chrome/92.0.4515.131 Safari/537.36",Macintosh,Chrome,92.0.4515.131,"OS X",10_15_7,5f461dd6c139dd6b46c7596cbd57cd79
206,1,"""","""","""","""","""",sampler,109,307128,0.0-6.0-103.0,"""","""","""","""","""","""","""","""","""","""","""","""","2021-08-13 21:23:12",134.215.190.226,"Mozilla/5.0 (Macintosh; Intel Mac OS X 10_15_7) AppleWebKit/537.36 (KHTML, like Gecko) Chrome/92.0.4515.131 Safari/537.36",Macintosh,Chrome,92.0.4515.131,"OS X",10_15_7,5f461dd6c139dd6b46c7596cbd57cd79
206,1,"""","""","""","""","""",sampler,110,307128,0.0-6.0-104.0,"""","""","""","""","""","""","""","""","""","""","""","""","2021-08-13 21:23:12",134.215.190.226,"Mozilla/5.0 (Macintosh; Intel Mac OS X 10_15_7) AppleWebKit/537.36 (KHTML, like Gecko) Chrome/92.0.4515.131 Safari/537.36",Macintosh,Chrome,92.0.4515.131,"OS X",10_15_7,5f461dd6c139dd6b46c7596cbd57cd79
206,1,"""","""","""","""","""",sampler,111,307128,0.0-6.0-105.0,"""","""","""","""","""","""","""","""","""","""","""","""","2021-08-13 21:23:12",134.215.190.226,"Mozilla/5.0 (Macintosh; Intel Mac OS X 10_15_7) AppleWebKit/537.36 (KHTML, like Gecko) Chrome/92.0.4515.131 Safari/537.36",Macintosh,Chrome,92.0.4515.131,"OS X",10_15_7,5f461dd6c139dd6b46c7596cbd57cd79
206,1,"""","""","""","""","""",sampler,112,307128,0.0-6.0-106.0,"""","""","""","""","""","""","""","""","""","""","""","""","2021-08-13 21:23:12",134.215.190.226,"Mozilla/5.0 (Macintosh; Intel Mac OS X 10_15_7) AppleWebKit/537.36 (KHTML, like Gecko) Chrome/92.0.4515.131 Safari/537.36",Macintosh,Chrome,92.0.4515.131,"OS X",10_15_7,5f461dd6c139dd6b46c7596cbd57cd79
206,1,"""","""","""","""","""",sampler,113,307128,0.0-6.0-107.0,"""","""","""","""","""","""","""","""","""","""","""","""","2021-08-13 21:23:12",134.215.190.226,"Mozilla/5.0 (Macintosh; Intel Mac OS X 10_15_7) AppleWebKit/537.36 (KHTML, like Gecko) Chrome/92.0.4515.131 Safari/537.36",Macintosh,Chrome,92.0.4515.131,"OS X",10_15_7,5f461dd6c139dd6b46c7596cbd57cd79
206,1,"""","""","""","""","""",sampler,114,307129,0.0-6.0-108.0,"""","""","""","""","""","""","""","""","""","""","""","""","2021-08-13 21:23:12",134.215.190.226,"Mozilla/5.0 (Macintosh; Intel Mac OS X 10_15_7) AppleWebKit/537.36 (KHTML, like Gecko) Chrome/92.0.4515.131 Safari/537.36",Macintosh,Chrome,92.0.4515.131,"OS X",10_15_7,5f461dd6c139dd6b46c7596cbd57cd79
206,1,"""","""","""","""","""",sampler,115,307129,0.0-6.0-109.0,"""","""","""","""","""","""","""","""","""","""","""","""","2021-08-13 21:23:12",134.215.190.226,"Mozilla/5.0 (Macintosh; Intel Mac OS X 10_15_7) AppleWebKit/537.36 (KHTML, like Gecko) Chrome/92.0.4515.131 Safari/537.36",Macintosh,Chrome,92.0.4515.131,"OS X",10_15_7,5f461dd6c139dd6b46c7596cbd57cd79
206,1,"""","""","""","""","""",sampler,116,307129,0.0-6.0-110.0,"""","""","""","""","""","""","""","""","""","""","""","""","2021-08-13 21:23:12",134.215.190.226,"Mozilla/5.0 (Macintosh; Intel Mac OS X 10_15_7) AppleWebKit/537.36 (KHTML, like Gecko) Chrome/92.0.4515.131 Safari/537.36",Macintosh,Chrome,92.0.4515.131,"OS X",10_15_7,5f461dd6c139dd6b46c7596cbd57cd79
206,1,"""","""","""","""","""",sampler,117,307129,0.0-6.0-111.0,"""","""","""","""","""","""","""","""","""","""","""","""","2021-08-13 21:23:12",134.215.190.226,"Mozilla/5.0 (Macintosh; Intel Mac OS X 10_15_7) AppleWebKit/537.36 (KHTML, like Gecko) Chrome/92.0.4515.131 Safari/537.36",Macintosh,Chrome,92.0.4515.131,"OS X",10_15_7,5f461dd6c139dd6b46c7596cbd57cd79
206,1,"""","""","""","""","""",sampler,118,307129,0.0-6.0-112.0,"""","""","""","""","""","""","""","""","""","""","""","""","2021-08-13 21:23:12",134.215.190.226,"Mozilla/5.0 (Macintosh; Intel Mac OS X 10_15_7) AppleWebKit/537.36 (KHTML, like Gecko) Chrome/92.0.4515.131 Safari/537.36",Macintosh,Chrome,92.0.4515.131,"OS X",10_15_7,5f461dd6c139dd6b46c7596cbd57cd79
206,1,"""","""","""","""","""",sampler,119,307129,0.0-6.0-113.0,"""","""","""","""","""","""","""","""","""","""","""","""","2021-08-13 21:23:12",134.215.190.226,"Mozilla/5.0 (Macintosh; Intel Mac OS X 10_15_7) AppleWebKit/537.36 (KHTML, like Gecko) Chrome/92.0.4515.131 Safari/537.36",Macintosh,Chrome,92.0.4515.131,"OS X",10_15_7,5f461dd6c139dd6b46c7596cbd57cd79
206,1,"""","""","""","""","""",sampler,120,307129,0.0-6.0-114.0,"""","""","""","""","""","""","""","""","""","""","""","""","2021-08-13 21:23:12",134.215.190.226,"Mozilla/5.0 (Macintosh; Intel Mac OS X 10_15_7) AppleWebKit/537.36 (KHTML, like Gecko) Chrome/92.0.4515.131 Safari/537.36",Macintosh,Chrome,92.0.4515.131,"OS X",10_15_7,5f461dd6c139dd6b46c7596cbd57cd79
206,1,"""","""","""","""","""",sampler,121,307130,0.0-6.0-115.0,"""","""","""","""","""","""","""","""","""","""","""","""","2021-08-13 21:23:12",134.215.190.226,"Mozilla/5.0 (Macintosh; Intel Mac OS X 10_15_7) AppleWebKit/537.36 (KHTML, like Gecko) Chrome/92.0.4515.131 Safari/537.36",Macintosh,Chrome,92.0.4515.131,"OS X",10_15_7,5f461dd6c139dd6b46c7596cbd57cd79
206,1,"""","""","""","""","""",sampler,122,307130,0.0-6.0-116.0,"""","""","""","""","""","""","""","""","""","""","""","""","2021-08-13 21:23:12",134.215.190.226,"Mozilla/5.0 (Macintosh; Intel Mac OS X 10_15_7) AppleWebKit/537.36 (KHTML, like Gecko) Chrome/92.0.4515.131 Safari/537.36",Macintosh,Chrome,92.0.4515.131,"OS X",10_15_7,5f461dd6c139dd6b46c7596cbd57cd79
206,1,"""","""","""","""","""",sampler,123,307130,0.0-6.0-117.0,"""","""","""","""","""","""","""","""","""","""","""","""","2021-08-13 21:23:12",134.215.190.226,"Mozilla/5.0 (Macintosh; Intel Mac OS X 10_15_7) AppleWebKit/537.36 (KHTML, like Gecko) Chrome/92.0.4515.131 Safari/537.36",Macintosh,Chrome,92.0.4515.131,"OS X",10_15_7,5f461dd6c139dd6b46c7596cbd57cd79
206,1,"""","""","""","""","""",sampler,124,307130,0.0-6.0-118.0,"""","""","""","""","""","""","""","""","""","""","""","""","2021-08-13 21:23:12",134.215.190.226,"Mozilla/5.0 (Macintosh; Intel Mac OS X 10_15_7) AppleWebKit/537.36 (KHTML, like Gecko) Chrome/92.0.4515.131 Safari/537.36",Macintosh,Chrome,92.0.4515.131,"OS X",10_15_7,5f461dd6c139dd6b46c7596cbd57cd79
206,1,"""","""","""","""","""",sampler,125,307130,0.0-6.0-119.0,"""","""","""","""","""","""","""","""","""","""","""","""","2021-08-13 21:23:12",134.215.190.226,"Mozilla/5.0 (Macintosh; Intel Mac OS X 10_15_7) AppleWebKit/537.36 (KHTML, like Gecko) Chrome/92.0.4515.131 Safari/537.36",Macintosh,Chrome,92.0.4515.131,"OS X",10_15_7,5f461dd6c139dd6b46c7596cbd57cd79
206,1,"""","""","""","""","""",sampler,126,307131,0.0-6.0-120.0,"""","""","""","""","""","""","""","""","""","""","""","""","2021-08-13 21:23:12",134.215.190.226,"Mozilla/5.0 (Macintosh; Intel Mac OS X 10_15_7) AppleWebKit/537.36 (KHTML, like Gecko) Chrome/92.0.4515.131 Safari/537.36",Macintosh,Chrome,92.0.4515.131,"OS X",10_15_7,5f461dd6c139dd6b46c7596cbd57cd79
206,1,"""","""","""","""","""",sampler,127,307131,0.0-6.0-121.0,"""","""","""","""","""","""","""","""","""","""","""","""","2021-08-13 21:23:12",134.215.190.226,"Mozilla/5.0 (Macintosh; Intel Mac OS X 10_15_7) AppleWebKit/537.36 (KHTML, like Gecko) Chrome/92.0.4515.131 Safari/537.36",Macintosh,Chrome,92.0.4515.131,"OS X",10_15_7,5f461dd6c139dd6b46c7596cbd57cd79
206,1,"""","""","""","""","""",sampler,128,307131,0.0-6.0-122.0,"""","""","""","""","""","""","""","""","""","""","""","""","2021-08-13 21:23:12",134.215.190.226,"Mozilla/5.0 (Macintosh; Intel Mac OS X 10_15_7) AppleWebKit/537.36 (KHTML, like Gecko) Chrome/92.0.4515.131 Safari/537.36",Macintosh,Chrome,92.0.4515.131,"OS X",10_15_7,5f461dd6c139dd6b46c7596cbd57cd79
206,1,"""","""","""","""","""",sampler,129,307131,0.0-6.0-123.0,"""","""","""","""","""","""","""","""","""","""","""","""","2021-08-13 21:23:12",134.215.190.226,"Mozilla/5.0 (Macintosh; Intel Mac OS X 10_15_7) AppleWebKit/537.36 (KHTML, like Gecko) Chrome/92.0.4515.131 Safari/537.36",Macintosh,Chrome,92.0.4515.131,"OS X",10_15_7,5f461dd6c139dd6b46c7596cbd57cd79
206,1,"""","""","""","""","""",sampler,130,307131,0.0-6.0-124.0,"""","""","""","""","""","""","""","""","""","""","""","""","2021-08-13 21:23:12",134.215.190.226,"Mozilla/5.0 (Macintosh; Intel Mac OS X 10_15_7) AppleWebKit/537.36 (KHTML, like Gecko) Chrome/92.0.4515.131 Safari/537.36",Macintosh,Chrome,92.0.4515.131,"OS X",10_15_7,5f461dd6c139dd6b46c7596cbd57cd79
206,1,"""","""","""","""","""",sampler,131,307131,0.0-6.0-125.0,"""","""","""","""","""","""","""","""","""","""","""","""","2021-08-13 21:23:12",134.215.190.226,"Mozilla/5.0 (Macintosh; Intel Mac OS X 10_15_7) AppleWebKit/537.36 (KHTML, like Gecko) Chrome/92.0.4515.131 Safari/537.36",Macintosh,Chrome,92.0.4515.131,"OS X",10_15_7,5f461dd6c139dd6b46c7596cbd57cd79
206,1,"""","""","""","""","""",sampler,132,307131,0.0-6.0-126.0,"""","""","""","""","""","""","""","""","""","""","""","""","2021-08-13 21:23:12",134.215.190.226,"Mozilla/5.0 (Macintosh; Intel Mac OS X 10_15_7) AppleWebKit/537.36 (KHTML, like Gecko) Chrome/92.0.4515.131 Safari/537.36",Macintosh,Chrome,92.0.4515.131,"OS X",10_15_7,5f461dd6c139dd6b46c7596cbd57cd79
206,1,"""","""","""","""","""",sampler,133,307131,0.0-6.0-127.0,"""","""","""","""","""","""","""","""","""","""","""","""","2021-08-13 21:23:12",134.215.190.226,"Mozilla/5.0 (Macintosh; Intel Mac OS X 10_15_7) AppleWebKit/537.36 (KHTML, like Gecko) Chrome/92.0.4515.131 Safari/537.36",Macintosh,Chrome,92.0.4515.131,"OS X",10_15_7,5f461dd6c139dd6b46c7596cbd57cd79
206,1,"""","""","""","""","""",sampler,134,307131,0.0-6.0-128.0,"""","""","""","""","""","""","""","""","""","""","""","""","2021-08-13 21:23:12",134.215.190.226,"Mozilla/5.0 (Macintosh; Intel Mac OS X 10_15_7) AppleWebKit/537.36 (KHTML, like Gecko) Chrome/92.0.4515.131 Safari/537.36",Macintosh,Chrome,92.0.4515.131,"OS X",10_15_7,5f461dd6c139dd6b46c7596cbd57cd79
206,1,"""","""","""","""","""",sampler,135,307132,0.0-6.0-129.0,"""","""","""","""","""","""","""","""","""","""","""","""","2021-08-13 21:23:12",134.215.190.226,"Mozilla/5.0 (Macintosh; Intel Mac OS X 10_15_7) AppleWebKit/537.36 (KHTML, like Gecko) Chrome/92.0.4515.131 Safari/537.36",Macintosh,Chrome,92.0.4515.131,"OS X",10_15_7,5f461dd6c139dd6b46c7596cbd57cd79
206,1,"""","""","""","""","""",sampler,136,307132,0.0-6.0-130.0,"""","""","""","""","""","""","""","""","""","""","""","""","2021-08-13 21:23:12",134.215.190.226,"Mozilla/5.0 (Macintosh; Intel Mac OS X 10_15_7) AppleWebKit/537.36 (KHTML, like Gecko) Chrome/92.0.4515.131 Safari/537.36",Macintosh,Chrome,92.0.4515.131,"OS X",10_15_7,5f461dd6c139dd6b46c7596cbd57cd79
206,1,"""","""","""","""","""",sampler,137,307132,0.0-6.0-131.0,"""","""","""","""","""","""","""","""","""","""","""","""","2021-08-13 21:23:12",134.215.190.226,"Mozilla/5.0 (Macintosh; Intel Mac OS X 10_15_7) AppleWebKit/537.36 (KHTML, like Gecko) Chrome/92.0.4515.131 Safari/537.36",Macintosh,Chrome,92.0.4515.131,"OS X",10_15_7,5f461dd6c139dd6b46c7596cbd57cd79
206,1,"""","""","""","""","""",sampler,138,307132,0.0-6.0-132.0,"""","""","""","""","""","""","""","""","""","""","""","""","2021-08-13 21:23:12",134.215.190.226,"Mozilla/5.0 (Macintosh; Intel Mac OS X 10_15_7) AppleWebKit/537.36 (KHTML, like Gecko) Chrome/92.0.4515.131 Safari/537.36",Macintosh,Chrome,92.0.4515.131,"OS X",10_15_7,5f461dd6c139dd6b46c7596cbd57cd79
206,1,"""","""","""","""","""",sampler,139,307132,0.0-6.0-133.0,"""","""","""","""","""","""","""","""","""","""","""","""","2021-08-13 21:23:12",134.215.190.226,"Mozilla/5.0 (Macintosh; Intel Mac OS X 10_15_7) AppleWebKit/537.36 (KHTML, like Gecko) Chrome/92.0.4515.131 Safari/537.36",Macintosh,Chrome,92.0.4515.131,"OS X",10_15_7,5f461dd6c139dd6b46c7596cbd57cd79
206,1,"""","""","""","""","""",sampler,140,307132,0.0-6.0-134.0,"""","""","""","""","""","""","""","""","""","""","""","""","2021-08-13 21:23:12",134.215.190.226,"Mozilla/5.0 (Macintosh; Intel Mac OS X 10_15_7) AppleWebKit/537.36 (KHTML, like Gecko) Chrome/92.0.4515.131 Safari/537.36",Macintosh,Chrome,92.0.4515.131,"OS X",10_15_7,5f461dd6c139dd6b46c7596cbd57cd79
206,1,"""","""","""","""","""",sampler,141,307132,0.0-6.0-135.0,"""","""","""","""","""","""","""","""","""","""","""","""","2021-08-13 21:23:12",134.215.190.226,"Mozilla/5.0 (Macintosh; Intel Mac OS X 10_15_7) AppleWebKit/537.36 (KHTML, like Gecko) Chrome/92.0.4515.131 Safari/537.36",Macintosh,Chrome,92.0.4515.131,"OS X",10_15_7,5f461dd6c139dd6b46c7596cbd57cd79
206,1,"""","""","""","""","""",sampler,142,307132,0.0-6.0-136.0,"""","""","""","""","""","""","""","""","""","""","""","""","2021-08-13 21:23:12",134.215.190.226,"Mozilla/5.0 (Macintosh; Intel Mac OS X 10_15_7) AppleWebKit/537.36 (KHTML, like Gecko) Chrome/92.0.4515.131 Safari/537.36",Macintosh,Chrome,92.0.4515.131,"OS X",10_15_7,5f461dd6c139dd6b46c7596cbd57cd79
206,1,"""","""","""","""","""",sampler,143,307133,0.0-6.0-137.0,"""","""","""","""","""","""","""","""","""","""","""","""","2021-08-13 21:23:12",134.215.190.226,"Mozilla/5.0 (Macintosh; Intel Mac OS X 10_15_7) AppleWebKit/537.36 (KHTML, like Gecko) Chrome/92.0.4515.131 Safari/537.36",Macintosh,Chrome,92.0.4515.131,"OS X",10_15_7,5f461dd6c139dd6b46c7596cbd57cd79
206,1,"""","""","""","""","""",sampler,144,307133,0.0-6.0-138.0,"""","""","""","""","""","""","""","""","""","""","""","""","2021-08-13 21:23:12",134.215.190.226,"Mozilla/5.0 (Macintosh; Intel Mac OS X 10_15_7) AppleWebKit/537.36 (KHTML, like Gecko) Chrome/92.0.4515.131 Safari/537.36",Macintosh,Chrome,92.0.4515.131,"OS X",10_15_7,5f461dd6c139dd6b46c7596cbd57cd79
206,1,"""","""","""","""","""",sampler,145,307133,0.0-6.0-139.0,"""","""","""","""","""","""","""","""","""","""","""","""","2021-08-13 21:23:12",134.215.190.226,"Mozilla/5.0 (Macintosh; Intel Mac OS X 10_15_7) AppleWebKit/537.36 (KHTML, like Gecko) Chrome/92.0.4515.131 Safari/537.36",Macintosh,Chrome,92.0.4515.131,"OS X",10_15_7,5f461dd6c139dd6b46c7596cbd57cd79
206,1,"""","""","""","""","""",sampler,146,307133,0.0-6.0-140.0,"""","""","""","""","""","""","""","""","""","""","""","""","2021-08-13 21:23:12",134.215.190.226,"Mozilla/5.0 (Macintosh; Intel Mac OS X 10_15_7) AppleWebKit/537.36 (KHTML, like Gecko) Chrome/92.0.4515.131 Safari/537.36",Macintosh,Chrome,92.0.4515.131,"OS X",10_15_7,5f461dd6c139dd6b46c7596cbd57cd79
206,1,"""","""","""","""","""",sampler,147,307133,0.0-6.0-141.0,"""","""","""","""","""","""","""","""","""","""","""","""","2021-08-13 21:23:12",134.215.190.226,"Mozilla/5.0 (Macintosh; Intel Mac OS X 10_15_7) AppleWebKit/537.36 (KHTML, like Gecko) Chrome/92.0.4515.131 Safari/537.36",Macintosh,Chrome,92.0.4515.131,"OS X",10_15_7,5f461dd6c139dd6b46c7596cbd57cd79
206,1,"""","""","""","""","""",sampler,148,307133,0.0-6.0-142.0,"""","""","""","""","""","""","""","""","""","""","""","""","2021-08-13 21:23:12",134.215.190.226,"Mozilla/5.0 (Macintosh; Intel Mac OS X 10_15_7) AppleWebKit/537.36 (KHTML, like Gecko) Chrome/92.0.4515.131 Safari/537.36",Macintosh,Chrome,92.0.4515.131,"OS X",10_15_7,5f461dd6c139dd6b46c7596cbd57cd79
206,1,"""","""","""","""","""",sampler,149,307133,0.0-6.0-143.0,"""","""","""","""","""","""","""","""","""","""","""","""","2021-08-13 21:23:12",134.215.190.226,"Mozilla/5.0 (Macintosh; Intel Mac OS X 10_15_7) AppleWebKit/537.36 (KHTML, like Gecko) Chrome/92.0.4515.131 Safari/537.36",Macintosh,Chrome,92.0.4515.131,"OS X",10_15_7,5f461dd6c139dd6b46c7596cbd57cd79
206,1,"""","""","""","""","""",sampler,150,307133,0.0-6.0-144.0,"""","""","""","""","""","""","""","""","""","""","""","""","2021-08-13 21:23:12",134.215.190.226,"Mozilla/5.0 (Macintosh; Intel Mac OS X 10_15_7) AppleWebKit/537.36 (KHTML, like Gecko) Chrome/92.0.4515.131 Safari/537.36",Macintosh,Chrome,92.0.4515.131,"OS X",10_15_7,5f461dd6c139dd6b46c7596cbd57cd79
206,1,"""","""","""","""","""",sampler,151,307133,0.0-6.0-145.0,"""","""","""","""","""","""","""","""","""","""","""","""","2021-08-13 21:23:12",134.215.190.226,"Mozilla/5.0 (Macintosh; Intel Mac OS X 10_15_7) AppleWebKit/537.36 (KHTML, like Gecko) Chrome/92.0.4515.131 Safari/537.36",Macintosh,Chrome,92.0.4515.131,"OS X",10_15_7,5f461dd6c139dd6b46c7596cbd57cd79
206,1,"""","""","""","""","""",sampler,152,307134,0.0-6.0-146.0,"""","""","""","""","""","""","""","""","""","""","""","""","2021-08-13 21:23:12",134.215.190.226,"Mozilla/5.0 (Macintosh; Intel Mac OS X 10_15_7) AppleWebKit/537.36 (KHTML, like Gecko) Chrome/92.0.4515.131 Safari/537.36",Macintosh,Chrome,92.0.4515.131,"OS X",10_15_7,5f461dd6c139dd6b46c7596cbd57cd79
206,1,"""","""","""","""","""",sampler,153,307134,0.0-6.0-147.0,"""","""","""","""","""","""","""","""","""","""","""","""","2021-08-13 21:23:12",134.215.190.226,"Mozilla/5.0 (Macintosh; Intel Mac OS X 10_15_7) AppleWebKit/537.36 (KHTML, like Gecko) Chrome/92.0.4515.131 Safari/537.36",Macintosh,Chrome,92.0.4515.131,"OS X",10_15_7,5f461dd6c139dd6b46c7596cbd57cd79
206,1,"""","""","""","""","""",sampler,154,307134,0.0-6.0-148.0,"""","""","""","""","""","""","""","""","""","""","""","""","2021-08-13 21:23:12",134.215.190.226,"Mozilla/5.0 (Macintosh; Intel Mac OS X 10_15_7) AppleWebKit/537.36 (KHTML, like Gecko) Chrome/92.0.4515.131 Safari/537.36",Macintosh,Chrome,92.0.4515.131,"OS X",10_15_7,5f461dd6c139dd6b46c7596cbd57cd79
206,1,"""","""","""","""","""",sampler,155,307134,0.0-6.0-149.0,"""","""","""","""","""","""","""","""","""","""","""","""","2021-08-13 21:23:12",134.215.190.226,"Mozilla/5.0 (Macintosh; Intel Mac OS X 10_15_7) AppleWebKit/537.36 (KHTML, like Gecko) Chrome/92.0.4515.131 Safari/537.36",Macintosh,Chrome,92.0.4515.131,"OS X",10_15_7,5f461dd6c139dd6b46c7596cbd57cd79
206,1,"""","""","""","""","""",sampler,156,307134,0.0-6.0-150.0,"""","""","""","""","""","""","""","""","""","""","""","""","2021-08-13 21:23:12",134.215.190.226,"Mozilla/5.0 (Macintosh; Intel Mac OS X 10_15_7) AppleWebKit/537.36 (KHTML, like Gecko) Chrome/92.0.4515.131 Safari/537.36",Macintosh,Chrome,92.0.4515.131,"OS X",10_15_7,5f461dd6c139dd6b46c7596cbd57cd79
206,1,"""","""","""","""","""",sampler,157,307134,0.0-6.0-151.0,"""","""","""","""","""","""","""","""","""","""","""","""","2021-08-13 21:23:12",134.215.190.226,"Mozilla/5.0 (Macintosh; Intel Mac OS X 10_15_7) AppleWebKit/537.36 (KHTML, like Gecko) Chrome/92.0.4515.131 Safari/537.36",Macintosh,Chrome,92.0.4515.131,"OS X",10_15_7,5f461dd6c139dd6b46c7596cbd57cd79
206,1,"""","""","""","""","""",sampler,158,307134,0.0-6.0-152.0,"""","""","""","""","""","""","""","""","""","""","""","""","2021-08-13 21:23:12",134.215.190.226,"Mozilla/5.0 (Macintosh; Intel Mac OS X 10_15_7) AppleWebKit/537.36 (KHTML, like Gecko) Chrome/92.0.4515.131 Safari/537.36",Macintosh,Chrome,92.0.4515.131,"OS X",10_15_7,5f461dd6c139dd6b46c7596cbd57cd79
206,1,"""","""","""","""","""",sampler,159,307134,0.0-6.0-153.0,"""","""","""","""","""","""","""","""","""","""","""","""","2021-08-13 21:23:12",134.215.190.226,"Mozilla/5.0 (Macintosh; Intel Mac OS X 10_15_7) AppleWebKit/537.36 (KHTML, like Gecko) Chrome/92.0.4515.131 Safari/537.36",Macintosh,Chrome,92.0.4515.131,"OS X",10_15_7,5f461dd6c139dd6b46c7596cbd57cd79
206,1,"""","""","""","""","""",sampler,160,307134,0.0-6.0-154.0,"""","""","""","""","""","""","""","""","""","""","""","""","2021-08-13 21:23:12",134.215.190.226,"Mozilla/5.0 (Macintosh; Intel Mac OS X 10_15_7) AppleWebKit/537.36 (KHTML, like Gecko) Chrome/92.0.4515.131 Safari/537.36",Macintosh,Chrome,92.0.4515.131,"OS X",10_15_7,5f461dd6c139dd6b46c7596cbd57cd79
206,1,"""","""","""","""","""",sampler,161,307135,0.0-6.0-155.0,"""","""","""","""","""","""","""","""","""","""","""","""","2021-08-13 21:23:12",134.215.190.226,"Mozilla/5.0 (Macintosh; Intel Mac OS X 10_15_7) AppleWebKit/537.36 (KHTML, like Gecko) Chrome/92.0.4515.131 Safari/537.36",Macintosh,Chrome,92.0.4515.131,"OS X",10_15_7,5f461dd6c139dd6b46c7596cbd57cd79
206,1,"""","""","""","""","""",sampler,162,307135,0.0-6.0-156.0,"""","""","""","""","""","""","""","""","""","""","""","""","2021-08-13 21:23:12",134.215.190.226,"Mozilla/5.0 (Macintosh; Intel Mac OS X 10_15_7) AppleWebKit/537.36 (KHTML, like Gecko) Chrome/92.0.4515.131 Safari/537.36",Macintosh,Chrome,92.0.4515.131,"OS X",10_15_7,5f461dd6c139dd6b46c7596cbd57cd79
206,1,"""","""","""","""","""",sampler,163,307135,0.0-6.0-157.0,"""","""","""","""","""","""","""","""","""","""","""","""","2021-08-13 21:23:12",134.215.190.226,"Mozilla/5.0 (Macintosh; Intel Mac OS X 10_15_7) AppleWebKit/537.36 (KHTML, like Gecko) Chrome/92.0.4515.131 Safari/537.36",Macintosh,Chrome,92.0.4515.131,"OS X",10_15_7,5f461dd6c139dd6b46c7596cbd57cd79
206,1,"""","""","""","""","""",sampler,164,307135,0.0-6.0-158.0,"""","""","""","""","""","""","""","""","""","""","""","""","2021-08-13 21:23:12",134.215.190.226,"Mozilla/5.0 (Macintosh; Intel Mac OS X 10_15_7) AppleWebKit/537.36 (KHTML, like Gecko) Chrome/92.0.4515.131 Safari/537.36",Macintosh,Chrome,92.0.4515.131,"OS X",10_15_7,5f461dd6c139dd6b46c7596cbd57cd79
206,1,"""","""","""","""","""",sampler,165,307135,0.0-6.0-159.0,"""","""","""","""","""","""","""","""","""","""","""","""","2021-08-13 21:23:12",134.215.190.226,"Mozilla/5.0 (Macintosh; Intel Mac OS X 10_15_7) AppleWebKit/537.36 (KHTML, like Gecko) Chrome/92.0.4515.131 Safari/537.36",Macintosh,Chrome,92.0.4515.131,"OS X",10_15_7,5f461dd6c139dd6b46c7596cbd57cd79
206,1,"""","""","""","""","""",sampler,166,307135,0.0-6.0-160.0,"""","""","""","""","""","""","""","""","""","""","""","""","2021-08-13 21:23:12",134.215.190.226,"Mozilla/5.0 (Macintosh; Intel Mac OS X 10_15_7) AppleWebKit/537.36 (KHTML, like Gecko) Chrome/92.0.4515.131 Safari/537.36",Macintosh,Chrome,92.0.4515.131,"OS X",10_15_7,5f461dd6c139dd6b46c7596cbd57cd79
206,1,"""","""","""","""","""",sampler,167,307135,0.0-6.0-161.0,"""","""","""","""","""","""","""","""","""","""","""","""","2021-08-13 21:23:12",134.215.190.226,"Mozilla/5.0 (Macintosh; Intel Mac OS X 10_15_7) AppleWebKit/537.36 (KHTML, like Gecko) Chrome/92.0.4515.131 Safari/537.36",Macintosh,Chrome,92.0.4515.131,"OS X",10_15_7,5f461dd6c139dd6b46c7596cbd57cd79
206,1,"""","""","""","""","""",sampler,168,307135,0.0-6.0-162.0,"""","""","""","""","""","""","""","""","""","""","""","""","2021-08-13 21:23:12",134.215.190.226,"Mozilla/5.0 (Macintosh; Intel Mac OS X 10_15_7) AppleWebKit/537.36 (KHTML, like Gecko) Chrome/92.0.4515.131 Safari/537.36",Macintosh,Chrome,92.0.4515.131,"OS X",10_15_7,5f461dd6c139dd6b46c7596cbd57cd79
206,1,"""","""","""","""","""",sampler,169,307135,0.0-6.0-163.0,"""","""","""","""","""","""","""","""","""","""","""","""","2021-08-13 21:23:12",134.215.190.226,"Mozilla/5.0 (Macintosh; Intel Mac OS X 10_15_7) AppleWebKit/537.36 (KHTML, like Gecko) Chrome/92.0.4515.131 Safari/537.36",Macintosh,Chrome,92.0.4515.131,"OS X",10_15_7,5f461dd6c139dd6b46c7596cbd57cd79
206,1,"""","""","""","""","""",sampler,170,307136,0.0-6.0-164.0,"""","""","""","""","""","""","""","""","""","""","""","""","2021-08-13 21:23:12",134.215.190.226,"Mozilla/5.0 (Macintosh; Intel Mac OS X 10_15_7) AppleWebKit/537.36 (KHTML, like Gecko) Chrome/92.0.4515.131 Safari/537.36",Macintosh,Chrome,92.0.4515.131,"OS X",10_15_7,5f461dd6c139dd6b46c7596cbd57cd79
206,1,"""","""","""","""","""",sampler,171,307136,0.0-6.0-165.0,"""","""","""","""","""","""","""","""","""","""","""","""","2021-08-13 21:23:12",134.215.190.226,"Mozilla/5.0 (Macintosh; Intel Mac OS X 10_15_7) AppleWebKit/537.36 (KHTML, like Gecko) Chrome/92.0.4515.131 Safari/537.36",Macintosh,Chrome,92.0.4515.131,"OS X",10_15_7,5f461dd6c139dd6b46c7596cbd57cd79
206,1,"""","""","""","""","""",sampler,172,307137,0.0-6.0-166.0,"""","""","""","""","""","""","""","""","""","""","""","""","2021-08-13 21:23:12",134.215.190.226,"Mozilla/5.0 (Macintosh; Intel Mac OS X 10_15_7) AppleWebKit/537.36 (KHTML, like Gecko) Chrome/92.0.4515.131 Safari/537.36",Macintosh,Chrome,92.0.4515.131,"OS X",10_15_7,5f461dd6c139dd6b46c7596cbd57cd79
206,1,"""","""","""","""","""",sampler,173,307137,0.0-6.0-167.0,"""","""","""","""","""","""","""","""","""","""","""","""","2021-08-13 21:23:12",134.215.190.226,"Mozilla/5.0 (Macintosh; Intel Mac OS X 10_15_7) AppleWebKit/537.36 (KHTML, like Gecko) Chrome/92.0.4515.131 Safari/537.36",Macintosh,Chrome,92.0.4515.131,"OS X",10_15_7,5f461dd6c139dd6b46c7596cbd57cd79
206,1,"""","""","""","""","""",sampler,174,307137,0.0-6.0-168.0,"""","""","""","""","""","""","""","""","""","""","""","""","2021-08-13 21:23:12",134.215.190.226,"Mozilla/5.0 (Macintosh; Intel Mac OS X 10_15_7) AppleWebKit/537.36 (KHTML, like Gecko) Chrome/92.0.4515.131 Safari/537.36",Macintosh,Chrome,92.0.4515.131,"OS X",10_15_7,5f461dd6c139dd6b46c7596cbd57cd79
206,1,"""","""","""","""","""",sampler,175,307137,0.0-6.0-169.0,"""","""","""","""","""","""","""","""","""","""","""","""","2021-08-13 21:23:12",134.215.190.226,"Mozilla/5.0 (Macintosh; Intel Mac OS X 10_15_7) AppleWebKit/537.36 (KHTML, like Gecko) Chrome/92.0.4515.131 Safari/537.36",Macintosh,Chrome,92.0.4515.131,"OS X",10_15_7,5f461dd6c139dd6b46c7596cbd57cd79
206,1,"""","""","""","""","""",sampler,176,307137,0.0-6.0-170.0,"""","""","""","""","""","""","""","""","""","""","""","""","2021-08-13 21:23:12",134.215.190.226,"Mozilla/5.0 (Macintosh; Intel Mac OS X 10_15_7) AppleWebKit/537.36 (KHTML, like Gecko) Chrome/92.0.4515.131 Safari/537.36",Macintosh,Chrome,92.0.4515.131,"OS X",10_15_7,5f461dd6c139dd6b46c7596cbd57cd79
206,1,"""","""","""","""","""",sampler,177,307137,0.0-6.0-171.0,"""","""","""","""","""","""","""","""","""","""","""","""","2021-08-13 21:23:12",134.215.190.226,"Mozilla/5.0 (Macintosh; Intel Mac OS X 10_15_7) AppleWebKit/537.36 (KHTML, like Gecko) Chrome/92.0.4515.131 Safari/537.36",Macintosh,Chrome,92.0.4515.131,"OS X",10_15_7,5f461dd6c139dd6b46c7596cbd57cd79
206,1,"""","""","""","""","""",sampler,178,307137,0.0-6.0-172.0,"""","""","""","""","""","""","""","""","""","""","""","""","2021-08-13 21:23:12",134.215.190.226,"Mozilla/5.0 (Macintosh; Intel Mac OS X 10_15_7) AppleWebKit/537.36 (KHTML, like Gecko) Chrome/92.0.4515.131 Safari/537.36",Macintosh,Chrome,92.0.4515.131,"OS X",10_15_7,5f461dd6c139dd6b46c7596cbd57cd79
206,1,"""","""","""","""","""",sampler,179,307138,0.0-6.0-173.0,"""","""","""","""","""","""","""","""","""","""","""","""","2021-08-13 21:23:12",134.215.190.226,"Mozilla/5.0 (Macintosh; Intel Mac OS X 10_15_7) AppleWebKit/537.36 (KHTML, like Gecko) Chrome/92.0.4515.131 Safari/537.36",Macintosh,Chrome,92.0.4515.131,"OS X",10_15_7,5f461dd6c139dd6b46c7596cbd57cd79
206,1,"""","""","""","""","""",sampler,180,307138,0.0-6.0-174.0,"""","""","""","""","""","""","""","""","""","""","""","""","2021-08-13 21:23:12",134.215.190.226,"Mozilla/5.0 (Macintosh; Intel Mac OS X 10_15_7) AppleWebKit/537.36 (KHTML, like Gecko) Chrome/92.0.4515.131 Safari/537.36",Macintosh,Chrome,92.0.4515.131,"OS X",10_15_7,5f461dd6c139dd6b46c7596cbd57cd79
206,1,"""","""","""","""","""",sampler,181,307138,0.0-6.0-175.0,"""","""","""","""","""","""","""","""","""","""","""","""","2021-08-13 21:23:12",134.215.190.226,"Mozilla/5.0 (Macintosh; Intel Mac OS X 10_15_7) AppleWebKit/537.36 (KHTML, like Gecko) Chrome/92.0.4515.131 Safari/537.36",Macintosh,Chrome,92.0.4515.131,"OS X",10_15_7,5f461dd6c139dd6b46c7596cbd57cd79
206,1,"""","""","""","""","""",sampler,182,307138,0.0-6.0-176.0,"""","""","""","""","""","""","""","""","""","""","""","""","2021-08-13 21:23:12",134.215.190.226,"Mozilla/5.0 (Macintosh; Intel Mac OS X 10_15_7) AppleWebKit/537.36 (KHTML, like Gecko) Chrome/92.0.4515.131 Safari/537.36",Macintosh,Chrome,92.0.4515.131,"OS X",10_15_7,5f461dd6c139dd6b46c7596cbd57cd79
206,1,"""","""","""","""","""",sampler,183,307138,0.0-6.0-177.0,"""","""","""","""","""","""","""","""","""","""","""","""","2021-08-13 21:23:12",134.215.190.226,"Mozilla/5.0 (Macintosh; Intel Mac OS X 10_15_7) AppleWebKit/537.36 (KHTML, like Gecko) Chrome/92.0.4515.131 Safari/537.36",Macintosh,Chrome,92.0.4515.131,"OS X",10_15_7,5f461dd6c139dd6b46c7596cbd57cd79
206,1,"""","""","""","""","""",sampler,184,307138,0.0-6.0-178.0,"""","""","""","""","""","""","""","""","""","""","""","""","2021-08-13 21:23:12",134.215.190.226,"Mozilla/5.0 (Macintosh; Intel Mac OS X 10_15_7) AppleWebKit/537.36 (KHTML, like Gecko) Chrome/92.0.4515.131 Safari/537.36",Macintosh,Chrome,92.0.4515.131,"OS X",10_15_7,5f461dd6c139dd6b46c7596cbd57cd79
206,1,"""","""","""","""","""",sampler,185,307138,0.0-6.0-179.0,"""","""","""","""","""","""","""","""","""","""","""","""","2021-08-13 21:23:12",134.215.190.226,"Mozilla/5.0 (Macintosh; Intel Mac OS X 10_15_7) AppleWebKit/537.36 (KHTML, like Gecko) Chrome/92.0.4515.131 Safari/537.36",Macintosh,Chrome,92.0.4515.131,"OS X",10_15_7,5f461dd6c139dd6b46c7596cbd57cd79
206,1,"""","""","""","""","""",sampler,186,307138,0.0-6.0-180.0,"""","""","""","""","""","""","""","""","""","""","""","""","2021-08-13 21:23:12",134.215.190.226,"Mozilla/5.0 (Macintosh; Intel Mac OS X 10_15_7) AppleWebKit/537.36 (KHTML, like Gecko) Chrome/92.0.4515.131 Safari/537.36",Macintosh,Chrome,92.0.4515.131,"OS X",10_15_7,5f461dd6c139dd6b46c7596cbd57cd79
206,1,"""","""","""","""","""",sampler,187,307138,0.0-6.0-181.0,"""","""","""","""","""","""","""","""","""","""","""","""","2021-08-13 21:23:12",134.215.190.226,"Mozilla/5.0 (Macintosh; Intel Mac OS X 10_15_7) AppleWebKit/537.36 (KHTML, like Gecko) Chrome/92.0.4515.131 Safari/537.36",Macintosh,Chrome,92.0.4515.131,"OS X",10_15_7,5f461dd6c139dd6b46c7596cbd57cd79
206,1,"""","""","""","""","""",sampler,188,307139,0.0-6.0-182.0,"""","""","""","""","""","""","""","""","""","""","""","""","2021-08-13 21:23:12",134.215.190.226,"Mozilla/5.0 (Macintosh; Intel Mac OS X 10_15_7) AppleWebKit/537.36 (KHTML, like Gecko) Chrome/92.0.4515.131 Safari/537.36",Macintosh,Chrome,92.0.4515.131,"OS X",10_15_7,5f461dd6c139dd6b46c7596cbd57cd79
206,1,"""","""","""","""","""",sampler,189,307139,0.0-6.0-183.0,"""","""","""","""","""","""","""","""","""","""","""","""","2021-08-13 21:23:12",134.215.190.226,"Mozilla/5.0 (Macintosh; Intel Mac OS X 10_15_7) AppleWebKit/537.36 (KHTML, like Gecko) Chrome/92.0.4515.131 Safari/537.36",Macintosh,Chrome,92.0.4515.131,"OS X",10_15_7,5f461dd6c139dd6b46c7596cbd57cd79
206,1,"""","""","""","""","""",sampler,190,307139,0.0-6.0-184.0,"""","""","""","""","""","""","""","""","""","""","""","""","2021-08-13 21:23:12",134.215.190.226,"Mozilla/5.0 (Macintosh; Intel Mac OS X 10_15_7) AppleWebKit/537.36 (KHTML, like Gecko) Chrome/92.0.4515.131 Safari/537.36",Macintosh,Chrome,92.0.4515.131,"OS X",10_15_7,5f461dd6c139dd6b46c7596cbd57cd79
206,1,"""","""","""","""","""",sampler,191,307139,0.0-6.0-185.0,"""","""","""","""","""","""","""","""","""","""","""","""","2021-08-13 21:23:12",134.215.190.226,"Mozilla/5.0 (Macintosh; Intel Mac OS X 10_15_7) AppleWebKit/537.36 (KHTML, like Gecko) Chrome/92.0.4515.131 Safari/537.36",Macintosh,Chrome,92.0.4515.131,"OS X",10_15_7,5f461dd6c139dd6b46c7596cbd57cd79
206,1,"""","""","""","""","""",sampler,192,307139,0.0-6.0-186.0,"""","""","""","""","""","""","""","""","""","""","""","""","2021-08-13 21:23:12",134.215.190.226,"Mozilla/5.0 (Macintosh; Intel Mac OS X 10_15_7) AppleWebKit/537.36 (KHTML, like Gecko) Chrome/92.0.4515.131 Safari/537.36",Macintosh,Chrome,92.0.4515.131,"OS X",10_15_7,5f461dd6c139dd6b46c7596cbd57cd79
206,1,"""","""","""","""","""",sampler,193,307139,0.0-6.0-187.0,"""","""","""","""","""","""","""","""","""","""","""","""","2021-08-13 21:23:12",134.215.190.226,"Mozilla/5.0 (Macintosh; Intel Mac OS X 10_15_7) AppleWebKit/537.36 (KHTML, like Gecko) Chrome/92.0.4515.131 Safari/537.36",Macintosh,Chrome,92.0.4515.131,"OS X",10_15_7,5f461dd6c139dd6b46c7596cbd57cd79
206,1,"""","""","""","""","""",sampler,194,307139,0.0-6.0-188.0,"""","""","""","""","""","""","""","""","""","""","""","""","2021-08-13 21:23:12",134.215.190.226,"Mozilla/5.0 (Macintosh; Intel Mac OS X 10_15_7) AppleWebKit/537.36 (KHTML, like Gecko) Chrome/92.0.4515.131 Safari/537.36",Macintosh,Chrome,92.0.4515.131,"OS X",10_15_7,5f461dd6c139dd6b46c7596cbd57cd79
206,1,"""","""","""","""","""",sampler,195,307139,0.0-6.0-189.0,"""","""","""","""","""","""","""","""","""","""","""","""","2021-08-13 21:23:12",134.215.190.226,"Mozilla/5.0 (Macintosh; Intel Mac OS X 10_15_7) AppleWebKit/537.36 (KHTML, like Gecko) Chrome/92.0.4515.131 Safari/537.36",Macintosh,Chrome,92.0.4515.131,"OS X",10_15_7,5f461dd6c139dd6b46c7596cbd57cd79
206,1,"""","""","""","""","""",sampler,196,307139,0.0-6.0-190.0,"""","""","""","""","""","""","""","""","""","""","""","""","2021-08-13 21:23:12",134.215.190.226,"Mozilla/5.0 (Macintosh; Intel Mac OS X 10_15_7) AppleWebKit/537.36 (KHTML, like Gecko) Chrome/92.0.4515.131 Safari/537.36",Macintosh,Chrome,92.0.4515.131,"OS X",10_15_7,5f461dd6c139dd6b46c7596cbd57cd79
206,1,"""","""","""","""","""",sampler,197,307139,0.0-6.0-191.0,"""","""","""","""","""","""","""","""","""","""","""","""","2021-08-13 21:23:12",134.215.190.226,"Mozilla/5.0 (Macintosh; Intel Mac OS X 10_15_7) AppleWebKit/537.36 (KHTML, like Gecko) Chrome/92.0.4515.131 Safari/537.36",Macintosh,Chrome,92.0.4515.131,"OS X",10_15_7,5f461dd6c139dd6b46c7596cbd57cd79
206,1,"""","""","""","""","""",sampler,198,307140,0.0-6.0-192.0,"""","""","""","""","""","""","""","""","""","""","""","""","2021-08-13 21:23:12",134.215.190.226,"Mozilla/5.0 (Macintosh; Intel Mac OS X 10_15_7) AppleWebKit/537.36 (KHTML, like Gecko) Chrome/92.0.4515.131 Safari/537.36",Macintosh,Chrome,92.0.4515.131,"OS X",10_15_7,5f461dd6c139dd6b46c7596cbd57cd79
206,1,"""","""","""","""","""",sampler,199,307140,0.0-6.0-193.0,"""","""","""","""","""","""","""","""","""","""","""","""","2021-08-13 21:23:12",134.215.190.226,"Mozilla/5.0 (Macintosh; Intel Mac OS X 10_15_7) AppleWebKit/537.36 (KHTML, like Gecko) Chrome/92.0.4515.131 Safari/537.36",Macintosh,Chrome,92.0.4515.131,"OS X",10_15_7,5f461dd6c139dd6b46c7596cbd57cd79
206,1,"""","""","""","""","""",sampler,200,307140,0.0-6.0-194.0,"""","""","""","""","""","""","""","""","""","""","""","""","2021-08-13 21:23:12",134.215.190.226,"Mozilla/5.0 (Macintosh; Intel Mac OS X 10_15_7) AppleWebKit/537.36 (KHTML, like Gecko) Chrome/92.0.4515.131 Safari/537.36",Macintosh,Chrome,92.0.4515.131,"OS X",10_15_7,5f461dd6c139dd6b46c7596cbd57cd79
206,1,"""","""","""","""","""",sampler,201,307140,0.0-6.0-195.0,"""","""","""","""","""","""","""","""","""","""","""","""","2021-08-13 21:23:12",134.215.190.226,"Mozilla/5.0 (Macintosh; Intel Mac OS X 10_15_7) AppleWebKit/537.36 (KHTML, like Gecko) Chrome/92.0.4515.131 Safari/537.36",Macintosh,Chrome,92.0.4515.131,"OS X",10_15_7,5f461dd6c139dd6b46c7596cbd57cd79
206,1,"""","""","""","""","""",sampler,202,307140,0.0-6.0-196.0,"""","""","""","""","""","""","""","""","""","""","""","""","2021-08-13 21:23:12",134.215.190.226,"Mozilla/5.0 (Macintosh; Intel Mac OS X 10_15_7) AppleWebKit/537.36 (KHTML, like Gecko) Chrome/92.0.4515.131 Safari/537.36",Macintosh,Chrome,92.0.4515.131,"OS X",10_15_7,5f461dd6c139dd6b46c7596cbd57cd79
206,1,"""","""","""","""","""",sampler,203,307140,0.0-6.0-197.0,"""","""","""","""","""","""","""","""","""","""","""","""","2021-08-13 21:23:12",134.215.190.226,"Mozilla/5.0 (Macintosh; Intel Mac OS X 10_15_7) AppleWebKit/537.36 (KHTML, like Gecko) Chrome/92.0.4515.131 Safari/537.36",Macintosh,Chrome,92.0.4515.131,"OS X",10_15_7,5f461dd6c139dd6b46c7596cbd57cd79
206,1,"""","""","""","""","""",sampler,204,307140,0.0-6.0-198.0,"""","""","""","""","""","""","""","""","""","""","""","""","2021-08-13 21:23:12",134.215.190.226,"Mozilla/5.0 (Macintosh; Intel Mac OS X 10_15_7) AppleWebKit/537.36 (KHTML, like Gecko) Chrome/92.0.4515.131 Safari/537.36",Macintosh,Chrome,92.0.4515.131,"OS X",10_15_7,5f461dd6c139dd6b46c7596cbd57cd79
206,1,"""","""","""","""","""",sampler,205,307140,0.0-6.0-199.0,"""","""","""","""","""","""","""","""","""","""","""","""","2021-08-13 21:23:12",134.215.190.226,"Mozilla/5.0 (Macintosh; Intel Mac OS X 10_15_7) AppleWebKit/537.36 (KHTML, like Gecko) Chrome/92.0.4515.131 Safari/537.36",Macintosh,Chrome,92.0.4515.131,"OS X",10_15_7,5f461dd6c139dd6b46c7596cbd57cd79
206,1,"""","""","""","""","""",sampler,206,307140,0.0-6.0-200.0,"""","""","""","""","""","""","""","""","""","""","""","""","2021-08-13 21:23:12",134.215.190.226,"Mozilla/5.0 (Macintosh; Intel Mac OS X 10_15_7) AppleWebKit/537.36 (KHTML, like Gecko) Chrome/92.0.4515.131 Safari/537.36",Macintosh,Chrome,92.0.4515.131,"OS X",10_15_7,5f461dd6c139dd6b46c7596cbd57cd79
206,1,"""","""","""","""","""",sampler,207,307141,0.0-6.0-201.0,"""","""","""","""","""","""","""","""","""","""","""","""","2021-08-13 21:23:12",134.215.190.226,"Mozilla/5.0 (Macintosh; Intel Mac OS X 10_15_7) AppleWebKit/537.36 (KHTML, like Gecko) Chrome/92.0.4515.131 Safari/537.36",Macintosh,Chrome,92.0.4515.131,"OS X",10_15_7,5f461dd6c139dd6b46c7596cbd57cd79
206,1,"""","""","""","""","""",sampler,208,307141,0.0-6.0-202.0,"""","""","""","""","""","""","""","""","""","""","""","""","2021-08-13 21:23:12",134.215.190.226,"Mozilla/5.0 (Macintosh; Intel Mac OS X 10_15_7) AppleWebKit/537.36 (KHTML, like Gecko) Chrome/92.0.4515.131 Safari/537.36",Macintosh,Chrome,92.0.4515.131,"OS X",10_15_7,5f461dd6c139dd6b46c7596cbd57cd79
206,1,"""","""","""","""","""",sampler,209,307141,0.0-6.0-203.0,"""","""","""","""","""","""","""","""","""","""","""","""","2021-08-13 21:23:12",134.215.190.226,"Mozilla/5.0 (Macintosh; Intel Mac OS X 10_15_7) AppleWebKit/537.36 (KHTML, like Gecko) Chrome/92.0.4515.131 Safari/537.36",Macintosh,Chrome,92.0.4515.131,"OS X",10_15_7,5f461dd6c139dd6b46c7596cbd57cd79
206,1,"""","""","""","""","""",sampler,210,307141,0.0-6.0-204.0,"""","""","""","""","""","""","""","""","""","""","""","""","2021-08-13 21:23:12",134.215.190.226,"Mozilla/5.0 (Macintosh; Intel Mac OS X 10_15_7) AppleWebKit/537.36 (KHTML, like Gecko) Chrome/92.0.4515.131 Safari/537.36",Macintosh,Chrome,92.0.4515.131,"OS X",10_15_7,5f461dd6c139dd6b46c7596cbd57cd79
206,1,"""","""","""","""","""",sampler,211,307141,0.0-6.0-205.0,"""","""","""","""","""","""","""","""","""","""","""","""","2021-08-13 21:23:12",134.215.190.226,"Mozilla/5.0 (Macintosh; Intel Mac OS X 10_15_7) AppleWebKit/537.36 (KHTML, like Gecko) Chrome/92.0.4515.131 Safari/537.36",Macintosh,Chrome,92.0.4515.131,"OS X",10_15_7,5f461dd6c139dd6b46c7596cbd57cd79
206,1,"""","""","""","""","""",sampler,212,307141,0.0-6.0-206.0,"""","""","""","""","""","""","""","""","""","""","""","""","2021-08-13 21:23:12",134.215.190.226,"Mozilla/5.0 (Macintosh; Intel Mac OS X 10_15_7) AppleWebKit/537.36 (KHTML, like Gecko) Chrome/92.0.4515.131 Safari/537.36",Macintosh,Chrome,92.0.4515.131,"OS X",10_15_7,5f461dd6c139dd6b46c7596cbd57cd79
206,1,"""","""","""","""","""",sampler,213,307141,0.0-6.0-207.0,"""","""","""","""","""","""","""","""","""","""","""","""","2021-08-13 21:23:12",134.215.190.226,"Mozilla/5.0 (Macintosh; Intel Mac OS X 10_15_7) AppleWebKit/537.36 (KHTML, like Gecko) Chrome/92.0.4515.131 Safari/537.36",Macintosh,Chrome,92.0.4515.131,"OS X",10_15_7,5f461dd6c139dd6b46c7596cbd57cd79
206,1,"""","""","""","""","""",sampler,214,307141,0.0-6.0-208.0,"""","""","""","""","""","""","""","""","""","""","""","""","2021-08-13 21:23:12",134.215.190.226,"Mozilla/5.0 (Macintosh; Intel Mac OS X 10_15_7) AppleWebKit/537.36 (KHTML, like Gecko) Chrome/92.0.4515.131 Safari/537.36",Macintosh,Chrome,92.0.4515.131,"OS X",10_15_7,5f461dd6c139dd6b46c7596cbd57cd79
206,1,"""","""","""","""","""",sampler,215,307141,0.0-6.0-209.0,"""","""","""","""","""","""","""","""","""","""","""","""","2021-08-13 21:23:12",134.215.190.226,"Mozilla/5.0 (Macintosh; Intel Mac OS X 10_15_7) AppleWebKit/537.36 (KHTML, like Gecko) Chrome/92.0.4515.131 Safari/537.36",Macintosh,Chrome,92.0.4515.131,"OS X",10_15_7,5f461dd6c139dd6b46c7596cbd57cd79
206,1,"""","""","""","""","""",sampler,216,307141,0.0-6.0-210.0,"""","""","""","""","""","""","""","""","""","""","""","""","2021-08-13 21:23:12",134.215.190.226,"Mozilla/5.0 (Macintosh; Intel Mac OS X 10_15_7) AppleWebKit/537.36 (KHTML, like Gecko) Chrome/92.0.4515.131 Safari/537.36",Macintosh,Chrome,92.0.4515.131,"OS X",10_15_7,5f461dd6c139dd6b46c7596cbd57cd79
206,1,"""","""","""","""","""",sampler,217,307142,0.0-6.0-211.0,"""","""","""","""","""","""","""","""","""","""","""","""","2021-08-13 21:23:12",134.215.190.226,"Mozilla/5.0 (Macintosh; Intel Mac OS X 10_15_7) AppleWebKit/537.36 (KHTML, like Gecko) Chrome/92.0.4515.131 Safari/537.36",Macintosh,Chrome,92.0.4515.131,"OS X",10_15_7,5f461dd6c139dd6b46c7596cbd57cd79
206,1,"""","""","""","""","""",sampler,218,307142,0.0-6.0-212.0,"""","""","""","""","""","""","""","""","""","""","""","""","2021-08-13 21:23:12",134.215.190.226,"Mozilla/5.0 (Macintosh; Intel Mac OS X 10_15_7) AppleWebKit/537.36 (KHTML, like Gecko) Chrome/92.0.4515.131 Safari/537.36",Macintosh,Chrome,92.0.4515.131,"OS X",10_15_7,5f461dd6c139dd6b46c7596cbd57cd79
206,1,"""","""","""","""","""",sampler,219,307142,0.0-6.0-213.0,"""","""","""","""","""","""","""","""","""","""","""","""","2021-08-13 21:23:12",134.215.190.226,"Mozilla/5.0 (Macintosh; Intel Mac OS X 10_15_7) AppleWebKit/537.36 (KHTML, like Gecko) Chrome/92.0.4515.131 Safari/537.36",Macintosh,Chrome,92.0.4515.131,"OS X",10_15_7,5f461dd6c139dd6b46c7596cbd57cd79
206,1,"""","""","""","""","""",sampler,220,307142,0.0-6.0-214.0,"""","""","""","""","""","""","""","""","""","""","""","""","2021-08-13 21:23:12",134.215.190.226,"Mozilla/5.0 (Macintosh; Intel Mac OS X 10_15_7) AppleWebKit/537.36 (KHTML, like Gecko) Chrome/92.0.4515.131 Safari/537.36",Macintosh,Chrome,92.0.4515.131,"OS X",10_15_7,5f461dd6c139dd6b46c7596cbd57cd79
206,1,"""","""","""","""","""",sampler,221,307142,0.0-6.0-215.0,"""","""","""","""","""","""","""","""","""","""","""","""","2021-08-13 21:23:12",134.215.190.226,"Mozilla/5.0 (Macintosh; Intel Mac OS X 10_15_7) AppleWebKit/537.36 (KHTML, like Gecko) Chrome/92.0.4515.131 Safari/537.36",Macintosh,Chrome,92.0.4515.131,"OS X",10_15_7,5f461dd6c139dd6b46c7596cbd57cd79
206,1,"""","""","""","""","""",sampler,222,307142,0.0-6.0-216.0,"""","""","""","""","""","""","""","""","""","""","""","""","2021-08-13 21:23:12",134.215.190.226,"Mozilla/5.0 (Macintosh; Intel Mac OS X 10_15_7) AppleWebKit/537.36 (KHTML, like Gecko) Chrome/92.0.4515.131 Safari/537.36",Macintosh,Chrome,92.0.4515.131,"OS X",10_15_7,5f461dd6c139dd6b46c7596cbd57cd79
206,1,"""","""","""","""","""",sampler,223,307142,0.0-6.0-217.0,"""","""","""","""","""","""","""","""","""","""","""","""","2021-08-13 21:23:12",134.215.190.226,"Mozilla/5.0 (Macintosh; Intel Mac OS X 10_15_7) AppleWebKit/537.36 (KHTML, like Gecko) Chrome/92.0.4515.131 Safari/537.36",Macintosh,Chrome,92.0.4515.131,"OS X",10_15_7,5f461dd6c139dd6b46c7596cbd57cd79
206,1,"""","""","""","""","""",sampler,224,307142,0.0-6.0-218.0,"""","""","""","""","""","""","""","""","""","""","""","""","2021-08-13 21:23:12",134.215.190.226,"Mozilla/5.0 (Macintosh; Intel Mac OS X 10_15_7) AppleWebKit/537.36 (KHTML, like Gecko) Chrome/92.0.4515.131 Safari/537.36",Macintosh,Chrome,92.0.4515.131,"OS X",10_15_7,5f461dd6c139dd6b46c7596cbd57cd79
206,1,"""","""","""","""","""",sampler,225,307142,0.0-6.0-219.0,"""","""","""","""","""","""","""","""","""","""","""","""","2021-08-13 21:23:12",134.215.190.226,"Mozilla/5.0 (Macintosh; Intel Mac OS X 10_15_7) AppleWebKit/537.36 (KHTML, like Gecko) Chrome/92.0.4515.131 Safari/537.36",Macintosh,Chrome,92.0.4515.131,"OS X",10_15_7,5f461dd6c139dd6b46c7596cbd57cd79
206,1,"""","""","""","""","""",sampler,226,307143,0.0-6.0-220.0,"""","""","""","""","""","""","""","""","""","""","""","""","2021-08-13 21:23:12",134.215.190.226,"Mozilla/5.0 (Macintosh; Intel Mac OS X 10_15_7) AppleWebKit/537.36 (KHTML, like Gecko) Chrome/92.0.4515.131 Safari/537.36",Macintosh,Chrome,92.0.4515.131,"OS X",10_15_7,5f461dd6c139dd6b46c7596cbd57cd79
206,1,"""","""","""","""","""",sampler,227,307143,0.0-6.0-221.0,"""","""","""","""","""","""","""","""","""","""","""","""","2021-08-13 21:23:12",134.215.190.226,"Mozilla/5.0 (Macintosh; Intel Mac OS X 10_15_7) AppleWebKit/537.36 (KHTML, like Gecko) Chrome/92.0.4515.131 Safari/537.36",Macintosh,Chrome,92.0.4515.131,"OS X",10_15_7,5f461dd6c139dd6b46c7596cbd57cd79
206,1,"""","""","""","""","""",sampler,228,307143,0.0-6.0-222.0,"""","""","""","""","""","""","""","""","""","""","""","""","2021-08-13 21:23:12",134.215.190.226,"Mozilla/5.0 (Macintosh; Intel Mac OS X 10_15_7) AppleWebKit/537.36 (KHTML, like Gecko) Chrome/92.0.4515.131 Safari/537.36",Macintosh,Chrome,92.0.4515.131,"OS X",10_15_7,5f461dd6c139dd6b46c7596cbd57cd79
206,1,"""","""","""","""","""",sampler,229,307143,0.0-6.0-223.0,"""","""","""","""","""","""","""","""","""","""","""","""","2021-08-13 21:23:12",134.215.190.226,"Mozilla/5.0 (Macintosh; Intel Mac OS X 10_15_7) AppleWebKit/537.36 (KHTML, like Gecko) Chrome/92.0.4515.131 Safari/537.36",Macintosh,Chrome,92.0.4515.131,"OS X",10_15_7,5f461dd6c139dd6b46c7596cbd57cd79
206,1,"""","""","""","""","""",sampler,230,307143,0.0-6.0-224.0,"""","""","""","""","""","""","""","""","""","""","""","""","2021-08-13 21:23:12",134.215.190.226,"Mozilla/5.0 (Macintosh; Intel Mac OS X 10_15_7) AppleWebKit/537.36 (KHTML, like Gecko) Chrome/92.0.4515.131 Safari/537.36",Macintosh,Chrome,92.0.4515.131,"OS X",10_15_7,5f461dd6c139dd6b46c7596cbd57cd79
206,1,"""","""","""","""","""",sampler,231,307143,0.0-6.0-225.0,"""","""","""","""","""","""","""","""","""","""","""","""","2021-08-13 21:23:12",134.215.190.226,"Mozilla/5.0 (Macintosh; Intel Mac OS X 10_15_7) AppleWebKit/537.36 (KHTML, like Gecko) Chrome/92.0.4515.131 Safari/537.36",Macintosh,Chrome,92.0.4515.131,"OS X",10_15_7,5f461dd6c139dd6b46c7596cbd57cd79
206,1,"""","""","""","""","""",sampler,232,307143,0.0-6.0-226.0,"""","""","""","""","""","""","""","""","""","""","""","""","2021-08-13 21:23:12",134.215.190.226,"Mozilla/5.0 (Macintosh; Intel Mac OS X 10_15_7) AppleWebKit/537.36 (KHTML, like Gecko) Chrome/92.0.4515.131 Safari/537.36",Macintosh,Chrome,92.0.4515.131,"OS X",10_15_7,5f461dd6c139dd6b46c7596cbd57cd79
206,1,"""","""","""","""","""",sampler,233,307143,0.0-6.0-227.0,"""","""","""","""","""","""","""","""","""","""","""","""","2021-08-13 21:23:12",134.215.190.226,"Mozilla/5.0 (Macintosh; Intel Mac OS X 10_15_7) AppleWebKit/537.36 (KHTML, like Gecko) Chrome/92.0.4515.131 Safari/537.36",Macintosh,Chrome,92.0.4515.131,"OS X",10_15_7,5f461dd6c139dd6b46c7596cbd57cd79
206,1,"""","""","""","""","""",sampler,234,307143,0.0-6.0-228.0,"""","""","""","""","""","""","""","""","""","""","""","""","2021-08-13 21:23:12",134.215.190.226,"Mozilla/5.0 (Macintosh; Intel Mac OS X 10_15_7) AppleWebKit/537.36 (KHTML, like Gecko) Chrome/92.0.4515.131 Safari/537.36",Macintosh,Chrome,92.0.4515.131,"OS X",10_15_7,5f461dd6c139dd6b46c7596cbd57cd79
206,1,"""","""","""","""","""",sampler,235,307143,0.0-6.0-229.0,"""","""","""","""","""","""","""","""","""","""","""","""","2021-08-13 21:23:12",134.215.190.226,"Mozilla/5.0 (Macintosh; Intel Mac OS X 10_15_7) AppleWebKit/537.36 (KHTML, like Gecko) Chrome/92.0.4515.131 Safari/537.36",Macintosh,Chrome,92.0.4515.131,"OS X",10_15_7,5f461dd6c139dd6b46c7596cbd57cd79
206,1,"""","""","""","""","""",sampler,236,307144,0.0-6.0-230.0,"""","""","""","""","""","""","""","""","""","""","""","""","2021-08-13 21:23:12",134.215.190.226,"Mozilla/5.0 (Macintosh; Intel Mac OS X 10_15_7) AppleWebKit/537.36 (KHTML, like Gecko) Chrome/92.0.4515.131 Safari/537.36",Macintosh,Chrome,92.0.4515.131,"OS X",10_15_7,5f461dd6c139dd6b46c7596cbd57cd79
206,1,"""","""","""","""","""",sampler,237,307144,0.0-6.0-231.0,"""","""","""","""","""","""","""","""","""","""","""","""","2021-08-13 21:23:12",134.215.190.226,"Mozilla/5.0 (Macintosh; Intel Mac OS X 10_15_7) AppleWebKit/537.36 (KHTML, like Gecko) Chrome/92.0.4515.131 Safari/537.36",Macintosh,Chrome,92.0.4515.131,"OS X",10_15_7,5f461dd6c139dd6b46c7596cbd57cd79
206,1,"""","""","""","""","""",sampler,238,307144,0.0-6.0-232.0,"""","""","""","""","""","""","""","""","""","""","""","""","2021-08-13 21:23:12",134.215.190.226,"Mozilla/5.0 (Macintosh; Intel Mac OS X 10_15_7) AppleWebKit/537.36 (KHTML, like Gecko) Chrome/92.0.4515.131 Safari/537.36",Macintosh,Chrome,92.0.4515.131,"OS X",10_15_7,5f461dd6c139dd6b46c7596cbd57cd79
206,1,"""","""","""","""","""",sampler,239,307144,0.0-6.0-233.0,"""","""","""","""","""","""","""","""","""","""","""","""","2021-08-13 21:23:12",134.215.190.226,"Mozilla/5.0 (Macintosh; Intel Mac OS X 10_15_7) AppleWebKit/537.36 (KHTML, like Gecko) Chrome/92.0.4515.131 Safari/537.36",Macintosh,Chrome,92.0.4515.131,"OS X",10_15_7,5f461dd6c139dd6b46c7596cbd57cd79
206,1,"""","""","""","""","""",sampler,240,307144,0.0-6.0-234.0,"""","""","""","""","""","""","""","""","""","""","""","""","2021-08-13 21:23:12",134.215.190.226,"Mozilla/5.0 (Macintosh; Intel Mac OS X 10_15_7) AppleWebKit/537.36 (KHTML, like Gecko) Chrome/92.0.4515.131 Safari/537.36",Macintosh,Chrome,92.0.4515.131,"OS X",10_15_7,5f461dd6c139dd6b46c7596cbd57cd79
206,1,"""","""","""","""","""",sampler,241,307144,0.0-6.0-235.0,"""","""","""","""","""","""","""","""","""","""","""","""","2021-08-13 21:23:12",134.215.190.226,"Mozilla/5.0 (Macintosh; Intel Mac OS X 10_15_7) AppleWebKit/537.36 (KHTML, like Gecko) Chrome/92.0.4515.131 Safari/537.36",Macintosh,Chrome,92.0.4515.131,"OS X",10_15_7,5f461dd6c139dd6b46c7596cbd57cd79
206,1,"""","""","""","""","""",sampler,242,307144,0.0-6.0-236.0,"""","""","""","""","""","""","""","""","""","""","""","""","2021-08-13 21:23:12",134.215.190.226,"Mozilla/5.0 (Macintosh; Intel Mac OS X 10_15_7) AppleWebKit/537.36 (KHTML, like Gecko) Chrome/92.0.4515.131 Safari/537.36",Macintosh,Chrome,92.0.4515.131,"OS X",10_15_7,5f461dd6c139dd6b46c7596cbd57cd79
206,1,"""","""","""","""","""",sampler,243,307144,0.0-6.0-237.0,"""","""","""","""","""","""","""","""","""","""","""","""","2021-08-13 21:23:12",134.215.190.226,"Mozilla/5.0 (Macintosh; Intel Mac OS X 10_15_7) AppleWebKit/537.36 (KHTML, like Gecko) Chrome/92.0.4515.131 Safari/537.36",Macintosh,Chrome,92.0.4515.131,"OS X",10_15_7,5f461dd6c139dd6b46c7596cbd57cd79
206,1,"""","""","""","""","""",sampler,244,307144,0.0-6.0-238.0,"""","""","""","""","""","""","""","""","""","""","""","""","2021-08-13 21:23:12",134.215.190.226,"Mozilla/5.0 (Macintosh; Intel Mac OS X 10_15_7) AppleWebKit/537.36 (KHTML, like Gecko) Chrome/92.0.4515.131 Safari/537.36",Macintosh,Chrome,92.0.4515.131,"OS X",10_15_7,5f461dd6c139dd6b46c7596cbd57cd79
206,1,"""","""","""","""","""",sampler,245,307144,0.0-6.0-239.0,"""","""","""","""","""","""","""","""","""","""","""","""","2021-08-13 21:23:12",134.215.190.226,"Mozilla/5.0 (Macintosh; Intel Mac OS X 10_15_7) AppleWebKit/537.36 (KHTML, like Gecko) Chrome/92.0.4515.131 Safari/537.36",Macintosh,Chrome,92.0.4515.131,"OS X",10_15_7,5f461dd6c139dd6b46c7596cbd57cd79
206,1,"""","""","""","""","""",sampler,246,307145,0.0-6.0-240.0,"""","""","""","""","""","""","""","""","""","""","""","""","2021-08-13 21:23:12",134.215.190.226,"Mozilla/5.0 (Macintosh; Intel Mac OS X 10_15_7) AppleWebKit/537.36 (KHTML, like Gecko) Chrome/92.0.4515.131 Safari/537.36",Macintosh,Chrome,92.0.4515.131,"OS X",10_15_7,5f461dd6c139dd6b46c7596cbd57cd79
206,1,"""","""","""","""","""",sampler,247,307145,0.0-6.0-241.0,"""","""","""","""","""","""","""","""","""","""","""","""","2021-08-13 21:23:12",134.215.190.226,"Mozilla/5.0 (Macintosh; Intel Mac OS X 10_15_7) AppleWebKit/537.36 (KHTML, like Gecko) Chrome/92.0.4515.131 Safari/537.36",Macintosh,Chrome,92.0.4515.131,"OS X",10_15_7,5f461dd6c139dd6b46c7596cbd57cd79
206,1,"""","""","""","""","""",sampler,248,307145,0.0-6.0-242.0,"""","""","""","""","""","""","""","""","""","""","""","""","2021-08-13 21:23:12",134.215.190.226,"Mozilla/5.0 (Macintosh; Intel Mac OS X 10_15_7) AppleWebKit/537.36 (KHTML, like Gecko) Chrome/92.0.4515.131 Safari/537.36",Macintosh,Chrome,92.0.4515.131,"OS X",10_15_7,5f461dd6c139dd6b46c7596cbd57cd79
206,1,"""","""","""","""","""",sampler,249,307145,0.0-6.0-243.0,"""","""","""","""","""","""","""","""","""","""","""","""","2021-08-13 21:23:12",134.215.190.226,"Mozilla/5.0 (Macintosh; Intel Mac OS X 10_15_7) AppleWebKit/537.36 (KHTML, like Gecko) Chrome/92.0.4515.131 Safari/537.36",Macintosh,Chrome,92.0.4515.131,"OS X",10_15_7,5f461dd6c139dd6b46c7596cbd57cd79
206,1,"""","""","""","""","""",sampler,250,307145,0.0-6.0-244.0,"""","""","""","""","""","""","""","""","""","""","""","""","2021-08-13 21:23:12",134.215.190.226,"Mozilla/5.0 (Macintosh; Intel Mac OS X 10_15_7) AppleWebKit/537.36 (KHTML, like Gecko) Chrome/92.0.4515.131 Safari/537.36",Macintosh,Chrome,92.0.4515.131,"OS X",10_15_7,5f461dd6c139dd6b46c7596cbd57cd79
206,1,"""","""","""","""","""",sampler,251,307145,0.0-6.0-245.0,"""","""","""","""","""","""","""","""","""","""","""","""","2021-08-13 21:23:12",134.215.190.226,"Mozilla/5.0 (Macintosh; Intel Mac OS X 10_15_7) AppleWebKit/537.36 (KHTML, like Gecko) Chrome/92.0.4515.131 Safari/537.36",Macintosh,Chrome,92.0.4515.131,"OS X",10_15_7,5f461dd6c139dd6b46c7596cbd57cd79
206,1,"""","""","""","""","""",sampler,252,307145,0.0-6.0-246.0,"""","""","""","""","""","""","""","""","""","""","""","""","2021-08-13 21:23:12",134.215.190.226,"Mozilla/5.0 (Macintosh; Intel Mac OS X 10_15_7) AppleWebKit/537.36 (KHTML, like Gecko) Chrome/92.0.4515.131 Safari/537.36",Macintosh,Chrome,92.0.4515.131,"OS X",10_15_7,5f461dd6c139dd6b46c7596cbd57cd79
206,1,"""","""","""","""","""",sampler,253,307145,0.0-6.0-247.0,"""","""","""","""","""","""","""","""","""","""","""","""","2021-08-13 21:23:12",134.215.190.226,"Mozilla/5.0 (Macintosh; Intel Mac OS X 10_15_7) AppleWebKit/537.36 (KHTML, like Gecko) Chrome/92.0.4515.131 Safari/537.36",Macintosh,Chrome,92.0.4515.131,"OS X",10_15_7,5f461dd6c139dd6b46c7596cbd57cd79
206,1,"""","""","""","""","""",sampler,254,307145,0.0-6.0-248.0,"""","""","""","""","""","""","""","""","""","""","""","""","2021-08-13 21:23:12",134.215.190.226,"Mozilla/5.0 (Macintosh; Intel Mac OS X 10_15_7) AppleWebKit/537.36 (KHTML, like Gecko) Chrome/92.0.4515.131 Safari/537.36",Macintosh,Chrome,92.0.4515.131,"OS X",10_15_7,5f461dd6c139dd6b46c7596cbd57cd79
206,1,"""","""","""","""","""",sampler,255,307145,0.0-6.0-249.0,"""","""","""","""","""","""","""","""","""","""","""","""","2021-08-13 21:23:12",134.215.190.226,"Mozilla/5.0 (Macintosh; Intel Mac OS X 10_15_7) AppleWebKit/537.36 (KHTML, like Gecko) Chrome/92.0.4515.131 Safari/537.36",Macintosh,Chrome,92.0.4515.131,"OS X",10_15_7,5f461dd6c139dd6b46c7596cbd57cd79
206,1,"""","""","""","""","""",sampler,256,307146,0.0-6.0-250.0,"""","""","""","""","""","""","""","""","""","""","""","""","2021-08-13 21:23:12",134.215.190.226,"Mozilla/5.0 (Macintosh; Intel Mac OS X 10_15_7) AppleWebKit/537.36 (KHTML, like Gecko) Chrome/92.0.4515.131 Safari/537.36",Macintosh,Chrome,92.0.4515.131,"OS X",10_15_7,5f461dd6c139dd6b46c7596cbd57cd79
206,1,"""","""","""","""","""",sampler,257,307146,0.0-6.0-251.0,"""","""","""","""","""","""","""","""","""","""","""","""","2021-08-13 21:23:12",134.215.190.226,"Mozilla/5.0 (Macintosh; Intel Mac OS X 10_15_7) AppleWebKit/537.36 (KHTML, like Gecko) Chrome/92.0.4515.131 Safari/537.36",Macintosh,Chrome,92.0.4515.131,"OS X",10_15_7,5f461dd6c139dd6b46c7596cbd57cd79
206,1,"""","""","""","""","""",sampler,258,307146,0.0-6.0-252.0,"""","""","""","""","""","""","""","""","""","""","""","""","2021-08-13 21:23:12",134.215.190.226,"Mozilla/5.0 (Macintosh; Intel Mac OS X 10_15_7) AppleWebKit/537.36 (KHTML, like Gecko) Chrome/92.0.4515.131 Safari/537.36",Macintosh,Chrome,92.0.4515.131,"OS X",10_15_7,5f461dd6c139dd6b46c7596cbd57cd79
206,1,"""","""","""","""","""",sampler,259,307147,0.0-6.0-253.0,"""","""","""","""","""","""","""","""","""","""","""","""","2021-08-13 21:23:12",134.215.190.226,"Mozilla/5.0 (Macintosh; Intel Mac OS X 10_15_7) AppleWebKit/537.36 (KHTML, like Gecko) Chrome/92.0.4515.131 Safari/537.36",Macintosh,Chrome,92.0.4515.131,"OS X",10_15_7,5f461dd6c139dd6b46c7596cbd57cd79
206,1,"""","""","""","""","""",sampler,260,307147,0.0-6.0-254.0,"""","""","""","""","""","""","""","""","""","""","""","""","2021-08-13 21:23:12",134.215.190.226,"Mozilla/5.0 (Macintosh; Intel Mac OS X 10_15_7) AppleWebKit/537.36 (KHTML, like Gecko) Chrome/92.0.4515.131 Safari/537.36",Macintosh,Chrome,92.0.4515.131,"OS X",10_15_7,5f461dd6c139dd6b46c7596cbd57cd79
206,1,"""","""","""","""","""",sampler,261,307147,0.0-6.0-255.0,"""","""","""","""","""","""","""","""","""","""","""","""","2021-08-13 21:23:12",134.215.190.226,"Mozilla/5.0 (Macintosh; Intel Mac OS X 10_15_7) AppleWebKit/537.36 (KHTML, like Gecko) Chrome/92.0.4515.131 Safari/537.36",Macintosh,Chrome,92.0.4515.131,"OS X",10_15_7,5f461dd6c139dd6b46c7596cbd57cd79
206,1,"""","""","""","""","""",sampler,262,307147,0.0-6.0-256.0,"""","""","""","""","""","""","""","""","""","""","""","""","2021-08-13 21:23:12",134.215.190.226,"Mozilla/5.0 (Macintosh; Intel Mac OS X 10_15_7) AppleWebKit/537.36 (KHTML, like Gecko) Chrome/92.0.4515.131 Safari/537.36",Macintosh,Chrome,92.0.4515.131,"OS X",10_15_7,5f461dd6c139dd6b46c7596cbd57cd79
206,1,"""","""","""","""","""",sampler,263,307147,0.0-6.0-257.0,"""","""","""","""","""","""","""","""","""","""","""","""","2021-08-13 21:23:12",134.215.190.226,"Mozilla/5.0 (Macintosh; Intel Mac OS X 10_15_7) AppleWebKit/537.36 (KHTML, like Gecko) Chrome/92.0.4515.131 Safari/537.36",Macintosh,Chrome,92.0.4515.131,"OS X",10_15_7,5f461dd6c139dd6b46c7596cbd57cd79
206,1,"""","""","""","""","""",sampler,264,307147,0.0-6.0-258.0,"""","""","""","""","""","""","""","""","""","""","""","""","2021-08-13 21:23:12",134.215.190.226,"Mozilla/5.0 (Macintosh; Intel Mac OS X 10_15_7) AppleWebKit/537.36 (KHTML, like Gecko) Chrome/92.0.4515.131 Safari/537.36",Macintosh,Chrome,92.0.4515.131,"OS X",10_15_7,5f461dd6c139dd6b46c7596cbd57cd79
206,1,"""","""","""","""","""",sampler,265,307147,0.0-6.0-259.0,"""","""","""","""","""","""","""","""","""","""","""","""","2021-08-13 21:23:12",134.215.190.226,"Mozilla/5.0 (Macintosh; Intel Mac OS X 10_15_7) AppleWebKit/537.36 (KHTML, like Gecko) Chrome/92.0.4515.131 Safari/537.36",Macintosh,Chrome,92.0.4515.131,"OS X",10_15_7,5f461dd6c139dd6b46c7596cbd57cd79
206,1,"""","""","""","""","""",sampler,266,307147,0.0-6.0-260.0,"""","""","""","""","""","""","""","""","""","""","""","""","2021-08-13 21:23:12",134.215.190.226,"Mozilla/5.0 (Macintosh; Intel Mac OS X 10_15_7) AppleWebKit/537.36 (KHTML, like Gecko) Chrome/92.0.4515.131 Safari/537.36",Macintosh,Chrome,92.0.4515.131,"OS X",10_15_7,5f461dd6c139dd6b46c7596cbd57cd79
206,1,"""","""","""","""","""",sampler,267,307147,0.0-6.0-261.0,"""","""","""","""","""","""","""","""","""","""","""","""","2021-08-13 21:23:12",134.215.190.226,"Mozilla/5.0 (Macintosh; Intel Mac OS X 10_15_7) AppleWebKit/537.36 (KHTML, like Gecko) Chrome/92.0.4515.131 Safari/537.36",Macintosh,Chrome,92.0.4515.131,"OS X",10_15_7,5f461dd6c139dd6b46c7596cbd57cd79
206,1,"""","""","""","""","""",sampler,268,307148,0.0-6.0-262.0,"""","""","""","""","""","""","""","""","""","""","""","""","2021-08-13 21:23:12",134.215.190.226,"Mozilla/5.0 (Macintosh; Intel Mac OS X 10_15_7) AppleWebKit/537.36 (KHTML, like Gecko) Chrome/92.0.4515.131 Safari/537.36",Macintosh,Chrome,92.0.4515.131,"OS X",10_15_7,5f461dd6c139dd6b46c7596cbd57cd79
206,1,"""","""","""","""","""",sampler,269,307148,0.0-6.0-263.0,"""","""","""","""","""","""","""","""","""","""","""","""","2021-08-13 21:23:12",134.215.190.226,"Mozilla/5.0 (Macintosh; Intel Mac OS X 10_15_7) AppleWebKit/537.36 (KHTML, like Gecko) Chrome/92.0.4515.131 Safari/537.36",Macintosh,Chrome,92.0.4515.131,"OS X",10_15_7,5f461dd6c139dd6b46c7596cbd57cd79
206,1,"""","""","""","""","""",sampler,270,307148,0.0-6.0-264.0,"""","""","""","""","""","""","""","""","""","""","""","""","2021-08-13 21:23:12",134.215.190.226,"Mozilla/5.0 (Macintosh; Intel Mac OS X 10_15_7) AppleWebKit/537.36 (KHTML, like Gecko) Chrome/92.0.4515.131 Safari/537.36",Macintosh,Chrome,92.0.4515.131,"OS X",10_15_7,5f461dd6c139dd6b46c7596cbd57cd79
