run_id,condition,success,timeout,failed_images,failed_audio,failed_video,trial_type,trial_index,time_elapsed,internal_node_id,rt,stimulus,key_press,responses,view_history,correct,image_click,points,sd,points2,total_earn,button_pressed,recorded_at,ip,user_agent,device,browser,browser_version,platform,platform_version,source_code_version
189,1,true,false,"""","""","""",preload,0,462,0.0-0.0,"""","""","""","""","""","""","""","""","""","""","""","""","2021-08-09 16:17:29",45.20.98.54,"Mozilla/5.0 (Macintosh; Intel Mac OS X 10_15_5) AppleWebKit/537.36 (KHTML, like Gecko) Chrome/91.0.4472.114 Safari/537.36",Macintosh,Chrome,91.0.4472.114,"OS X",10_15_5,5f461dd6c139dd6b46c7596cbd57cd79
189,1,"""","""","""","""","""",html-keyboard-response,1,2978,0.0-1.0,2513,"<font size=15>Welcome to our experiment!</font><br><br><br><i> Press <b>space bar</b> to begin.</i>",32,"""","""","""","""","""","""","""","""","""","2021-08-09 16:17:29",45.20.98.54,"Mozilla/5.0 (Macintosh; Intel Mac OS X 10_15_5) AppleWebKit/537.36 (KHTML, like Gecko) Chrome/91.0.4472.114 Safari/537.36",Macintosh,Chrome,91.0.4472.114,"OS X",10_15_5,5f461dd6c139dd6b46c7596cbd57cd79
189,1,"""","""","""","""","""",survey-multi-choice,2,12498,0.0-2.0,9516,"""","""","{""Q0"":""Yes"",""Q1"":""Yes"",""Q2"":""Yes"",""Q3"":""Yes""}","""","""","""","""","""","""","""","""","2021-08-09 16:17:29",45.20.98.54,"Mozilla/5.0 (Macintosh; Intel Mac OS X 10_15_5) AppleWebKit/537.36 (KHTML, like Gecko) Chrome/91.0.4472.114 Safari/537.36",Macintosh,Chrome,91.0.4472.114,"OS X",10_15_5,5f461dd6c139dd6b46c7596cbd57cd79
189,1,"""","""","""","""","""",survey-html-form,3,26062,0.0-3.0,13555.899999976158,"""","""","{""gender"":""female"",""age"":""23"",""hand"":""right"",""mail"":""61114785f4e432e2f2c827fd""}","""","""","""","""","""","""","""","""","2021-08-09 16:17:29",45.20.98.54,"Mozilla/5.0 (Macintosh; Intel Mac OS X 10_15_5) AppleWebKit/537.36 (KHTML, like Gecko) Chrome/91.0.4472.114 Safari/537.36",Macintosh,Chrome,91.0.4472.114,"OS X",10_15_5,5f461dd6c139dd6b46c7596cbd57cd79
189,1,true,"""","""","""","""",fullscreen,4,29590,0.0-4.0,"""","""","""","""","""","""","""","""","""","""","""","""","2021-08-09 16:17:29",45.20.98.54,"Mozilla/5.0 (Macintosh; Intel Mac OS X 10_15_5) AppleWebKit/537.36 (KHTML, like Gecko) Chrome/91.0.4472.114 Safari/537.36",Macintosh,Chrome,91.0.4472.114,"OS X",10_15_5,5f461dd6c139dd6b46c7596cbd57cd79
189,1,"""","""","""","""","""",multikey-instructions,5,164918,0.0-5.0,135326,"""","""","""","[{""page_index"":0,""viewing_time"":27163},{""page_index"":1,""viewing_time"":3391},{""page_index"":0,""viewing_time"":7687},{""page_index"":1,""viewing_time"":12345},{""page_index"":2,""viewing_time"":4411},{""page_index"":3,""viewing_time"":17022},{""page_index"":4,""viewing_time"":9499},{""page_index"":5,""viewing_time"":11870},{""page_index"":6,""viewing_time"":3961},{""page_index"":7,""viewing_time"":3891},{""page_index"":8,""viewing_time"":15633},{""page_index"":9,""viewing_time"":7135},{""page_index"":10,""viewing_time"":7027},{""page_index"":11,""viewing_time"":4291}]","""","""","""","""","""","""","""","2021-08-09 16:17:29",45.20.98.54,"Mozilla/5.0 (Macintosh; Intel Mac OS X 10_15_5) AppleWebKit/537.36 (KHTML, like Gecko) Chrome/91.0.4472.114 Safari/537.36",Macintosh,Chrome,91.0.4472.114,"OS X",10_15_5,5f461dd6c139dd6b46c7596cbd57cd79
189,1,"""","""","""","""","""",sampler,6,176943,0.0-6.0-0.0,11617,img/Cyan.png,"""","""","""",false,-1,22.72110712710614,10,"""","""","""","2021-08-09 16:17:29",45.20.98.54,"Mozilla/5.0 (Macintosh; Intel Mac OS X 10_15_5) AppleWebKit/537.36 (KHTML, like Gecko) Chrome/91.0.4472.114 Safari/537.36",Macintosh,Chrome,91.0.4472.114,"OS X",10_15_5,5f461dd6c139dd6b46c7596cbd57cd79
189,1,"""","""","""","""","""",sampler,7,178110,0.0-6.0-1.0,762,img/Cyan.png,"""","""","""",false,-1,-20.96100957390799,10,"""","""","""","2021-08-09 16:17:29",45.20.98.54,"Mozilla/5.0 (Macintosh; Intel Mac OS X 10_15_5) AppleWebKit/537.36 (KHTML, like Gecko) Chrome/91.0.4472.114 Safari/537.36",Macintosh,Chrome,91.0.4472.114,"OS X",10_15_5,5f461dd6c139dd6b46c7596cbd57cd79
189,1,"""","""","""","""","""",sampler,8,180630,0.0-6.0-2.0,2112,img/Cyan.png,"""","""","""",false,-1,-6.794206210834918,10,"""","""","""","2021-08-09 16:17:29",45.20.98.54,"Mozilla/5.0 (Macintosh; Intel Mac OS X 10_15_5) AppleWebKit/537.36 (KHTML, like Gecko) Chrome/91.0.4472.114 Safari/537.36",Macintosh,Chrome,91.0.4472.114,"OS X",10_15_5,5f461dd6c139dd6b46c7596cbd57cd79
189,1,"""","""","""","""","""",sampler,9,181348,0.0-6.0-3.0,312,img/Cyan.png,"""","""","""",false,-1,10.7590540104998,10,"""","""","""","2021-08-09 16:17:29",45.20.98.54,"Mozilla/5.0 (Macintosh; Intel Mac OS X 10_15_5) AppleWebKit/537.36 (KHTML, like Gecko) Chrome/91.0.4472.114 Safari/537.36",Macintosh,Chrome,91.0.4472.114,"OS X",10_15_5,5f461dd6c139dd6b46c7596cbd57cd79
189,1,"""","""","""","""","""",sampler,10,181961,0.0-6.0-4.0,209,img/Cyan.png,"""","""","""",false,-1,0.7432714159966753,10,"""","""","""","2021-08-09 16:17:29",45.20.98.54,"Mozilla/5.0 (Macintosh; Intel Mac OS X 10_15_5) AppleWebKit/537.36 (KHTML, like Gecko) Chrome/91.0.4472.114 Safari/537.36",Macintosh,Chrome,91.0.4472.114,"OS X",10_15_5,5f461dd6c139dd6b46c7596cbd57cd79
189,1,"""","""","""","""","""",sampler,11,182441,0.0-6.0-5.0,72,img/Cyan.png,"""","""","""",false,-1,12.26603881166637,10,"""","""","""","2021-08-09 16:17:29",45.20.98.54,"Mozilla/5.0 (Macintosh; Intel Mac OS X 10_15_5) AppleWebKit/537.36 (KHTML, like Gecko) Chrome/91.0.4472.114 Safari/537.36",Macintosh,Chrome,91.0.4472.114,"OS X",10_15_5,5f461dd6c139dd6b46c7596cbd57cd79
189,1,"""","""","""","""","""",sampler,12,182888,0.0-6.0-6.0,39,img/Cyan.png,"""","""","""",false,-1,8.853141823209388,10,"""","""","""","2021-08-09 16:17:29",45.20.98.54,"Mozilla/5.0 (Macintosh; Intel Mac OS X 10_15_5) AppleWebKit/537.36 (KHTML, like Gecko) Chrome/91.0.4472.114 Safari/537.36",Macintosh,Chrome,91.0.4472.114,"OS X",10_15_5,5f461dd6c139dd6b46c7596cbd57cd79
189,1,"""","""","""","""","""",sampler,13,183429,0.0-6.0-7.0,137,img/Cyan.png,"""","""","""",false,-1,-2.8574978885636053,10,"""","""","""","2021-08-09 16:17:29",45.20.98.54,"Mozilla/5.0 (Macintosh; Intel Mac OS X 10_15_5) AppleWebKit/537.36 (KHTML, like Gecko) Chrome/91.0.4472.114 Safari/537.36",Macintosh,Chrome,91.0.4472.114,"OS X",10_15_5,5f461dd6c139dd6b46c7596cbd57cd79
189,1,"""","""","""","""","""",sampler,14,185370,0.0-6.0-8.0,1535,img/Cyan.png,"""","""","""",false,-1,7.2001459290193655,10,"""","""","""","2021-08-09 16:17:29",45.20.98.54,"Mozilla/5.0 (Macintosh; Intel Mac OS X 10_15_5) AppleWebKit/537.36 (KHTML, like Gecko) Chrome/91.0.4472.114 Safari/537.36",Macintosh,Chrome,91.0.4472.114,"OS X",10_15_5,5f461dd6c139dd6b46c7596cbd57cd79
189,1,"""","""","""","""","""",sampler,15,185371,0.0-6.0-9.0,"""","""","""","""","""","""","""","""","""","""","""","""","2021-08-09 16:17:29",45.20.98.54,"Mozilla/5.0 (Macintosh; Intel Mac OS X 10_15_5) AppleWebKit/537.36 (KHTML, like Gecko) Chrome/91.0.4472.114 Safari/537.36",Macintosh,Chrome,91.0.4472.114,"OS X",10_15_5,5f461dd6c139dd6b46c7596cbd57cd79
189,1,"""","""","""","""","""",sampler,16,185371,0.0-6.0-10.0,"""","""","""","""","""","""","""","""","""","""","""","""","2021-08-09 16:17:29",45.20.98.54,"Mozilla/5.0 (Macintosh; Intel Mac OS X 10_15_5) AppleWebKit/537.36 (KHTML, like Gecko) Chrome/91.0.4472.114 Safari/537.36",Macintosh,Chrome,91.0.4472.114,"OS X",10_15_5,5f461dd6c139dd6b46c7596cbd57cd79
189,1,"""","""","""","""","""",sampler,17,185371,0.0-6.0-11.0,"""","""","""","""","""","""","""","""","""","""","""","""","2021-08-09 16:17:29",45.20.98.54,"Mozilla/5.0 (Macintosh; Intel Mac OS X 10_15_5) AppleWebKit/537.36 (KHTML, like Gecko) Chrome/91.0.4472.114 Safari/537.36",Macintosh,Chrome,91.0.4472.114,"OS X",10_15_5,5f461dd6c139dd6b46c7596cbd57cd79
189,1,"""","""","""","""","""",sampler,18,185371,0.0-6.0-12.0,"""","""","""","""","""","""","""","""","""","""","""","""","2021-08-09 16:17:29",45.20.98.54,"Mozilla/5.0 (Macintosh; Intel Mac OS X 10_15_5) AppleWebKit/537.36 (KHTML, like Gecko) Chrome/91.0.4472.114 Safari/537.36",Macintosh,Chrome,91.0.4472.114,"OS X",10_15_5,5f461dd6c139dd6b46c7596cbd57cd79
189,1,"""","""","""","""","""",sampler,19,185371,0.0-6.0-13.0,"""","""","""","""","""","""","""","""","""","""","""","""","2021-08-09 16:17:29",45.20.98.54,"Mozilla/5.0 (Macintosh; Intel Mac OS X 10_15_5) AppleWebKit/537.36 (KHTML, like Gecko) Chrome/91.0.4472.114 Safari/537.36",Macintosh,Chrome,91.0.4472.114,"OS X",10_15_5,5f461dd6c139dd6b46c7596cbd57cd79
189,1,"""","""","""","""","""",sampler,20,185371,0.0-6.0-14.0,"""","""","""","""","""","""","""","""","""","""","""","""","2021-08-09 16:17:29",45.20.98.54,"Mozilla/5.0 (Macintosh; Intel Mac OS X 10_15_5) AppleWebKit/537.36 (KHTML, like Gecko) Chrome/91.0.4472.114 Safari/537.36",Macintosh,Chrome,91.0.4472.114,"OS X",10_15_5,5f461dd6c139dd6b46c7596cbd57cd79
189,1,"""","""","""","""","""",sampler,21,185371,0.0-6.0-15.0,"""","""","""","""","""","""","""","""","""","""","""","""","2021-08-09 16:17:29",45.20.98.54,"Mozilla/5.0 (Macintosh; Intel Mac OS X 10_15_5) AppleWebKit/537.36 (KHTML, like Gecko) Chrome/91.0.4472.114 Safari/537.36",Macintosh,Chrome,91.0.4472.114,"OS X",10_15_5,5f461dd6c139dd6b46c7596cbd57cd79
189,1,"""","""","""","""","""",sampler,22,185371,0.0-6.0-16.0,"""","""","""","""","""","""","""","""","""","""","""","""","2021-08-09 16:17:29",45.20.98.54,"Mozilla/5.0 (Macintosh; Intel Mac OS X 10_15_5) AppleWebKit/537.36 (KHTML, like Gecko) Chrome/91.0.4472.114 Safari/537.36",Macintosh,Chrome,91.0.4472.114,"OS X",10_15_5,5f461dd6c139dd6b46c7596cbd57cd79
189,1,"""","""","""","""","""",sampler,23,185372,0.0-6.0-17.0,"""","""","""","""","""","""","""","""","""","""","""","""","2021-08-09 16:17:29",45.20.98.54,"Mozilla/5.0 (Macintosh; Intel Mac OS X 10_15_5) AppleWebKit/537.36 (KHTML, like Gecko) Chrome/91.0.4472.114 Safari/537.36",Macintosh,Chrome,91.0.4472.114,"OS X",10_15_5,5f461dd6c139dd6b46c7596cbd57cd79
189,1,"""","""","""","""","""",sampler,24,185372,0.0-6.0-18.0,"""","""","""","""","""","""","""","""","""","""","""","""","2021-08-09 16:17:29",45.20.98.54,"Mozilla/5.0 (Macintosh; Intel Mac OS X 10_15_5) AppleWebKit/537.36 (KHTML, like Gecko) Chrome/91.0.4472.114 Safari/537.36",Macintosh,Chrome,91.0.4472.114,"OS X",10_15_5,5f461dd6c139dd6b46c7596cbd57cd79
189,1,"""","""","""","""","""",sampler,25,185372,0.0-6.0-19.0,"""","""","""","""","""","""","""","""","""","""","""","""","2021-08-09 16:17:29",45.20.98.54,"Mozilla/5.0 (Macintosh; Intel Mac OS X 10_15_5) AppleWebKit/537.36 (KHTML, like Gecko) Chrome/91.0.4472.114 Safari/537.36",Macintosh,Chrome,91.0.4472.114,"OS X",10_15_5,5f461dd6c139dd6b46c7596cbd57cd79
189,1,"""","""","""","""","""",sampler,26,185372,0.0-6.0-20.0,"""","""","""","""","""","""","""","""","""","""","""","""","2021-08-09 16:17:29",45.20.98.54,"Mozilla/5.0 (Macintosh; Intel Mac OS X 10_15_5) AppleWebKit/537.36 (KHTML, like Gecko) Chrome/91.0.4472.114 Safari/537.36",Macintosh,Chrome,91.0.4472.114,"OS X",10_15_5,5f461dd6c139dd6b46c7596cbd57cd79
189,1,"""","""","""","""","""",sampler,27,185372,0.0-6.0-21.0,"""","""","""","""","""","""","""","""","""","""","""","""","2021-08-09 16:17:29",45.20.98.54,"Mozilla/5.0 (Macintosh; Intel Mac OS X 10_15_5) AppleWebKit/537.36 (KHTML, like Gecko) Chrome/91.0.4472.114 Safari/537.36",Macintosh,Chrome,91.0.4472.114,"OS X",10_15_5,5f461dd6c139dd6b46c7596cbd57cd79
189,1,"""","""","""","""","""",sampler,28,185372,0.0-6.0-22.0,"""","""","""","""","""","""","""","""","""","""","""","""","2021-08-09 16:17:29",45.20.98.54,"Mozilla/5.0 (Macintosh; Intel Mac OS X 10_15_5) AppleWebKit/537.36 (KHTML, like Gecko) Chrome/91.0.4472.114 Safari/537.36",Macintosh,Chrome,91.0.4472.114,"OS X",10_15_5,5f461dd6c139dd6b46c7596cbd57cd79
189,1,"""","""","""","""","""",sampler,29,185372,0.0-6.0-23.0,"""","""","""","""","""","""","""","""","""","""","""","""","2021-08-09 16:17:29",45.20.98.54,"Mozilla/5.0 (Macintosh; Intel Mac OS X 10_15_5) AppleWebKit/537.36 (KHTML, like Gecko) Chrome/91.0.4472.114 Safari/537.36",Macintosh,Chrome,91.0.4472.114,"OS X",10_15_5,5f461dd6c139dd6b46c7596cbd57cd79
189,1,"""","""","""","""","""",sampler,30,185373,0.0-6.0-24.0,"""","""","""","""","""","""","""","""","""","""","""","""","2021-08-09 16:17:29",45.20.98.54,"Mozilla/5.0 (Macintosh; Intel Mac OS X 10_15_5) AppleWebKit/537.36 (KHTML, like Gecko) Chrome/91.0.4472.114 Safari/537.36",Macintosh,Chrome,91.0.4472.114,"OS X",10_15_5,5f461dd6c139dd6b46c7596cbd57cd79
189,1,"""","""","""","""","""",sampler,31,185373,0.0-6.0-25.0,"""","""","""","""","""","""","""","""","""","""","""","""","2021-08-09 16:17:29",45.20.98.54,"Mozilla/5.0 (Macintosh; Intel Mac OS X 10_15_5) AppleWebKit/537.36 (KHTML, like Gecko) Chrome/91.0.4472.114 Safari/537.36",Macintosh,Chrome,91.0.4472.114,"OS X",10_15_5,5f461dd6c139dd6b46c7596cbd57cd79
189,1,"""","""","""","""","""",sampler,32,185373,0.0-6.0-26.0,"""","""","""","""","""","""","""","""","""","""","""","""","2021-08-09 16:17:29",45.20.98.54,"Mozilla/5.0 (Macintosh; Intel Mac OS X 10_15_5) AppleWebKit/537.36 (KHTML, like Gecko) Chrome/91.0.4472.114 Safari/537.36",Macintosh,Chrome,91.0.4472.114,"OS X",10_15_5,5f461dd6c139dd6b46c7596cbd57cd79
189,1,"""","""","""","""","""",sampler,33,185373,0.0-6.0-27.0,"""","""","""","""","""","""","""","""","""","""","""","""","2021-08-09 16:17:29",45.20.98.54,"Mozilla/5.0 (Macintosh; Intel Mac OS X 10_15_5) AppleWebKit/537.36 (KHTML, like Gecko) Chrome/91.0.4472.114 Safari/537.36",Macintosh,Chrome,91.0.4472.114,"OS X",10_15_5,5f461dd6c139dd6b46c7596cbd57cd79
189,1,"""","""","""","""","""",sampler,34,185373,0.0-6.0-28.0,"""","""","""","""","""","""","""","""","""","""","""","""","2021-08-09 16:17:29",45.20.98.54,"Mozilla/5.0 (Macintosh; Intel Mac OS X 10_15_5) AppleWebKit/537.36 (KHTML, like Gecko) Chrome/91.0.4472.114 Safari/537.36",Macintosh,Chrome,91.0.4472.114,"OS X",10_15_5,5f461dd6c139dd6b46c7596cbd57cd79
189,1,"""","""","""","""","""",sampler,35,185373,0.0-6.0-29.0,"""","""","""","""","""","""","""","""","""","""","""","""","2021-08-09 16:17:29",45.20.98.54,"Mozilla/5.0 (Macintosh; Intel Mac OS X 10_15_5) AppleWebKit/537.36 (KHTML, like Gecko) Chrome/91.0.4472.114 Safari/537.36",Macintosh,Chrome,91.0.4472.114,"OS X",10_15_5,5f461dd6c139dd6b46c7596cbd57cd79
189,1,"""","""","""","""","""",sampler,36,185373,0.0-6.0-30.0,"""","""","""","""","""","""","""","""","""","""","""","""","2021-08-09 16:17:29",45.20.98.54,"Mozilla/5.0 (Macintosh; Intel Mac OS X 10_15_5) AppleWebKit/537.36 (KHTML, like Gecko) Chrome/91.0.4472.114 Safari/537.36",Macintosh,Chrome,91.0.4472.114,"OS X",10_15_5,5f461dd6c139dd6b46c7596cbd57cd79
189,1,"""","""","""","""","""",sampler,37,185373,0.0-6.0-31.0,"""","""","""","""","""","""","""","""","""","""","""","""","2021-08-09 16:17:29",45.20.98.54,"Mozilla/5.0 (Macintosh; Intel Mac OS X 10_15_5) AppleWebKit/537.36 (KHTML, like Gecko) Chrome/91.0.4472.114 Safari/537.36",Macintosh,Chrome,91.0.4472.114,"OS X",10_15_5,5f461dd6c139dd6b46c7596cbd57cd79
189,1,"""","""","""","""","""",sampler,38,185374,0.0-6.0-32.0,"""","""","""","""","""","""","""","""","""","""","""","""","2021-08-09 16:17:29",45.20.98.54,"Mozilla/5.0 (Macintosh; Intel Mac OS X 10_15_5) AppleWebKit/537.36 (KHTML, like Gecko) Chrome/91.0.4472.114 Safari/537.36",Macintosh,Chrome,91.0.4472.114,"OS X",10_15_5,5f461dd6c139dd6b46c7596cbd57cd79
189,1,"""","""","""","""","""",sampler,39,185374,0.0-6.0-33.0,"""","""","""","""","""","""","""","""","""","""","""","""","2021-08-09 16:17:29",45.20.98.54,"Mozilla/5.0 (Macintosh; Intel Mac OS X 10_15_5) AppleWebKit/537.36 (KHTML, like Gecko) Chrome/91.0.4472.114 Safari/537.36",Macintosh,Chrome,91.0.4472.114,"OS X",10_15_5,5f461dd6c139dd6b46c7596cbd57cd79
189,1,"""","""","""","""","""",sampler,40,185374,0.0-6.0-34.0,"""","""","""","""","""","""","""","""","""","""","""","""","2021-08-09 16:17:29",45.20.98.54,"Mozilla/5.0 (Macintosh; Intel Mac OS X 10_15_5) AppleWebKit/537.36 (KHTML, like Gecko) Chrome/91.0.4472.114 Safari/537.36",Macintosh,Chrome,91.0.4472.114,"OS X",10_15_5,5f461dd6c139dd6b46c7596cbd57cd79
189,1,"""","""","""","""","""",sampler,41,185374,0.0-6.0-35.0,"""","""","""","""","""","""","""","""","""","""","""","""","2021-08-09 16:17:29",45.20.98.54,"Mozilla/5.0 (Macintosh; Intel Mac OS X 10_15_5) AppleWebKit/537.36 (KHTML, like Gecko) Chrome/91.0.4472.114 Safari/537.36",Macintosh,Chrome,91.0.4472.114,"OS X",10_15_5,5f461dd6c139dd6b46c7596cbd57cd79
189,1,"""","""","""","""","""",sampler,42,185374,0.0-6.0-36.0,"""","""","""","""","""","""","""","""","""","""","""","""","2021-08-09 16:17:29",45.20.98.54,"Mozilla/5.0 (Macintosh; Intel Mac OS X 10_15_5) AppleWebKit/537.36 (KHTML, like Gecko) Chrome/91.0.4472.114 Safari/537.36",Macintosh,Chrome,91.0.4472.114,"OS X",10_15_5,5f461dd6c139dd6b46c7596cbd57cd79
189,1,"""","""","""","""","""",sampler,43,185374,0.0-6.0-37.0,"""","""","""","""","""","""","""","""","""","""","""","""","2021-08-09 16:17:29",45.20.98.54,"Mozilla/5.0 (Macintosh; Intel Mac OS X 10_15_5) AppleWebKit/537.36 (KHTML, like Gecko) Chrome/91.0.4472.114 Safari/537.36",Macintosh,Chrome,91.0.4472.114,"OS X",10_15_5,5f461dd6c139dd6b46c7596cbd57cd79
189,1,"""","""","""","""","""",sampler,44,185374,0.0-6.0-38.0,"""","""","""","""","""","""","""","""","""","""","""","""","2021-08-09 16:17:29",45.20.98.54,"Mozilla/5.0 (Macintosh; Intel Mac OS X 10_15_5) AppleWebKit/537.36 (KHTML, like Gecko) Chrome/91.0.4472.114 Safari/537.36",Macintosh,Chrome,91.0.4472.114,"OS X",10_15_5,5f461dd6c139dd6b46c7596cbd57cd79
189,1,"""","""","""","""","""",sampler,45,185374,0.0-6.0-39.0,"""","""","""","""","""","""","""","""","""","""","""","""","2021-08-09 16:17:29",45.20.98.54,"Mozilla/5.0 (Macintosh; Intel Mac OS X 10_15_5) AppleWebKit/537.36 (KHTML, like Gecko) Chrome/91.0.4472.114 Safari/537.36",Macintosh,Chrome,91.0.4472.114,"OS X",10_15_5,5f461dd6c139dd6b46c7596cbd57cd79
189,1,"""","""","""","""","""",sampler,46,185375,0.0-6.0-40.0,"""","""","""","""","""","""","""","""","""","""","""","""","2021-08-09 16:17:29",45.20.98.54,"Mozilla/5.0 (Macintosh; Intel Mac OS X 10_15_5) AppleWebKit/537.36 (KHTML, like Gecko) Chrome/91.0.4472.114 Safari/537.36",Macintosh,Chrome,91.0.4472.114,"OS X",10_15_5,5f461dd6c139dd6b46c7596cbd57cd79
189,1,"""","""","""","""","""",sampler,47,185375,0.0-6.0-41.0,"""","""","""","""","""","""","""","""","""","""","""","""","2021-08-09 16:17:29",45.20.98.54,"Mozilla/5.0 (Macintosh; Intel Mac OS X 10_15_5) AppleWebKit/537.36 (KHTML, like Gecko) Chrome/91.0.4472.114 Safari/537.36",Macintosh,Chrome,91.0.4472.114,"OS X",10_15_5,5f461dd6c139dd6b46c7596cbd57cd79
189,1,"""","""","""","""","""",sampler,48,185375,0.0-6.0-42.0,"""","""","""","""","""","""","""","""","""","""","""","""","2021-08-09 16:17:29",45.20.98.54,"Mozilla/5.0 (Macintosh; Intel Mac OS X 10_15_5) AppleWebKit/537.36 (KHTML, like Gecko) Chrome/91.0.4472.114 Safari/537.36",Macintosh,Chrome,91.0.4472.114,"OS X",10_15_5,5f461dd6c139dd6b46c7596cbd57cd79
189,1,"""","""","""","""","""",sampler,49,185375,0.0-6.0-43.0,"""","""","""","""","""","""","""","""","""","""","""","""","2021-08-09 16:17:29",45.20.98.54,"Mozilla/5.0 (Macintosh; Intel Mac OS X 10_15_5) AppleWebKit/537.36 (KHTML, like Gecko) Chrome/91.0.4472.114 Safari/537.36",Macintosh,Chrome,91.0.4472.114,"OS X",10_15_5,5f461dd6c139dd6b46c7596cbd57cd79
189,1,"""","""","""","""","""",sampler,50,185375,0.0-6.0-44.0,"""","""","""","""","""","""","""","""","""","""","""","""","2021-08-09 16:17:29",45.20.98.54,"Mozilla/5.0 (Macintosh; Intel Mac OS X 10_15_5) AppleWebKit/537.36 (KHTML, like Gecko) Chrome/91.0.4472.114 Safari/537.36",Macintosh,Chrome,91.0.4472.114,"OS X",10_15_5,5f461dd6c139dd6b46c7596cbd57cd79
189,1,"""","""","""","""","""",sampler,51,185375,0.0-6.0-45.0,"""","""","""","""","""","""","""","""","""","""","""","""","2021-08-09 16:17:29",45.20.98.54,"Mozilla/5.0 (Macintosh; Intel Mac OS X 10_15_5) AppleWebKit/537.36 (KHTML, like Gecko) Chrome/91.0.4472.114 Safari/537.36",Macintosh,Chrome,91.0.4472.114,"OS X",10_15_5,5f461dd6c139dd6b46c7596cbd57cd79
189,1,"""","""","""","""","""",sampler,52,185375,0.0-6.0-46.0,"""","""","""","""","""","""","""","""","""","""","""","""","2021-08-09 16:17:29",45.20.98.54,"Mozilla/5.0 (Macintosh; Intel Mac OS X 10_15_5) AppleWebKit/537.36 (KHTML, like Gecko) Chrome/91.0.4472.114 Safari/537.36",Macintosh,Chrome,91.0.4472.114,"OS X",10_15_5,5f461dd6c139dd6b46c7596cbd57cd79
189,1,"""","""","""","""","""",sampler,53,185375,0.0-6.0-47.0,"""","""","""","""","""","""","""","""","""","""","""","""","2021-08-09 16:17:29",45.20.98.54,"Mozilla/5.0 (Macintosh; Intel Mac OS X 10_15_5) AppleWebKit/537.36 (KHTML, like Gecko) Chrome/91.0.4472.114 Safari/537.36",Macintosh,Chrome,91.0.4472.114,"OS X",10_15_5,5f461dd6c139dd6b46c7596cbd57cd79
189,1,"""","""","""","""","""",sampler,54,185376,0.0-6.0-48.0,"""","""","""","""","""","""","""","""","""","""","""","""","2021-08-09 16:17:29",45.20.98.54,"Mozilla/5.0 (Macintosh; Intel Mac OS X 10_15_5) AppleWebKit/537.36 (KHTML, like Gecko) Chrome/91.0.4472.114 Safari/537.36",Macintosh,Chrome,91.0.4472.114,"OS X",10_15_5,5f461dd6c139dd6b46c7596cbd57cd79
189,1,"""","""","""","""","""",sampler,55,185376,0.0-6.0-49.0,"""","""","""","""","""","""","""","""","""","""","""","""","2021-08-09 16:17:29",45.20.98.54,"Mozilla/5.0 (Macintosh; Intel Mac OS X 10_15_5) AppleWebKit/537.36 (KHTML, like Gecko) Chrome/91.0.4472.114 Safari/537.36",Macintosh,Chrome,91.0.4472.114,"OS X",10_15_5,5f461dd6c139dd6b46c7596cbd57cd79
189,1,"""","""","""","""","""",sampler,56,185376,0.0-6.0-50.0,"""","""","""","""","""","""","""","""","""","""","""","""","2021-08-09 16:17:29",45.20.98.54,"Mozilla/5.0 (Macintosh; Intel Mac OS X 10_15_5) AppleWebKit/537.36 (KHTML, like Gecko) Chrome/91.0.4472.114 Safari/537.36",Macintosh,Chrome,91.0.4472.114,"OS X",10_15_5,5f461dd6c139dd6b46c7596cbd57cd79
189,1,"""","""","""","""","""",sampler,57,185376,0.0-6.0-51.0,"""","""","""","""","""","""","""","""","""","""","""","""","2021-08-09 16:17:29",45.20.98.54,"Mozilla/5.0 (Macintosh; Intel Mac OS X 10_15_5) AppleWebKit/537.36 (KHTML, like Gecko) Chrome/91.0.4472.114 Safari/537.36",Macintosh,Chrome,91.0.4472.114,"OS X",10_15_5,5f461dd6c139dd6b46c7596cbd57cd79
189,1,"""","""","""","""","""",sampler,58,185376,0.0-6.0-52.0,"""","""","""","""","""","""","""","""","""","""","""","""","2021-08-09 16:17:29",45.20.98.54,"Mozilla/5.0 (Macintosh; Intel Mac OS X 10_15_5) AppleWebKit/537.36 (KHTML, like Gecko) Chrome/91.0.4472.114 Safari/537.36",Macintosh,Chrome,91.0.4472.114,"OS X",10_15_5,5f461dd6c139dd6b46c7596cbd57cd79
189,1,"""","""","""","""","""",sampler,59,185376,0.0-6.0-53.0,"""","""","""","""","""","""","""","""","""","""","""","""","2021-08-09 16:17:29",45.20.98.54,"Mozilla/5.0 (Macintosh; Intel Mac OS X 10_15_5) AppleWebKit/537.36 (KHTML, like Gecko) Chrome/91.0.4472.114 Safari/537.36",Macintosh,Chrome,91.0.4472.114,"OS X",10_15_5,5f461dd6c139dd6b46c7596cbd57cd79
189,1,"""","""","""","""","""",sampler,60,185376,0.0-6.0-54.0,"""","""","""","""","""","""","""","""","""","""","""","""","2021-08-09 16:17:29",45.20.98.54,"Mozilla/5.0 (Macintosh; Intel Mac OS X 10_15_5) AppleWebKit/537.36 (KHTML, like Gecko) Chrome/91.0.4472.114 Safari/537.36",Macintosh,Chrome,91.0.4472.114,"OS X",10_15_5,5f461dd6c139dd6b46c7596cbd57cd79
189,1,"""","""","""","""","""",sampler,61,185377,0.0-6.0-55.0,"""","""","""","""","""","""","""","""","""","""","""","""","2021-08-09 16:17:29",45.20.98.54,"Mozilla/5.0 (Macintosh; Intel Mac OS X 10_15_5) AppleWebKit/537.36 (KHTML, like Gecko) Chrome/91.0.4472.114 Safari/537.36",Macintosh,Chrome,91.0.4472.114,"OS X",10_15_5,5f461dd6c139dd6b46c7596cbd57cd79
189,1,"""","""","""","""","""",sampler,62,185377,0.0-6.0-56.0,"""","""","""","""","""","""","""","""","""","""","""","""","2021-08-09 16:17:29",45.20.98.54,"Mozilla/5.0 (Macintosh; Intel Mac OS X 10_15_5) AppleWebKit/537.36 (KHTML, like Gecko) Chrome/91.0.4472.114 Safari/537.36",Macintosh,Chrome,91.0.4472.114,"OS X",10_15_5,5f461dd6c139dd6b46c7596cbd57cd79
189,1,"""","""","""","""","""",sampler,63,185377,0.0-6.0-57.0,"""","""","""","""","""","""","""","""","""","""","""","""","2021-08-09 16:17:29",45.20.98.54,"Mozilla/5.0 (Macintosh; Intel Mac OS X 10_15_5) AppleWebKit/537.36 (KHTML, like Gecko) Chrome/91.0.4472.114 Safari/537.36",Macintosh,Chrome,91.0.4472.114,"OS X",10_15_5,5f461dd6c139dd6b46c7596cbd57cd79
189,1,"""","""","""","""","""",sampler,64,185377,0.0-6.0-58.0,"""","""","""","""","""","""","""","""","""","""","""","""","2021-08-09 16:17:29",45.20.98.54,"Mozilla/5.0 (Macintosh; Intel Mac OS X 10_15_5) AppleWebKit/537.36 (KHTML, like Gecko) Chrome/91.0.4472.114 Safari/537.36",Macintosh,Chrome,91.0.4472.114,"OS X",10_15_5,5f461dd6c139dd6b46c7596cbd57cd79
189,1,"""","""","""","""","""",sampler,65,185377,0.0-6.0-59.0,"""","""","""","""","""","""","""","""","""","""","""","""","2021-08-09 16:17:29",45.20.98.54,"Mozilla/5.0 (Macintosh; Intel Mac OS X 10_15_5) AppleWebKit/537.36 (KHTML, like Gecko) Chrome/91.0.4472.114 Safari/537.36",Macintosh,Chrome,91.0.4472.114,"OS X",10_15_5,5f461dd6c139dd6b46c7596cbd57cd79
189,1,"""","""","""","""","""",sampler,66,185377,0.0-6.0-60.0,"""","""","""","""","""","""","""","""","""","""","""","""","2021-08-09 16:17:29",45.20.98.54,"Mozilla/5.0 (Macintosh; Intel Mac OS X 10_15_5) AppleWebKit/537.36 (KHTML, like Gecko) Chrome/91.0.4472.114 Safari/537.36",Macintosh,Chrome,91.0.4472.114,"OS X",10_15_5,5f461dd6c139dd6b46c7596cbd57cd79
189,1,"""","""","""","""","""",sampler,67,185377,0.0-6.0-61.0,"""","""","""","""","""","""","""","""","""","""","""","""","2021-08-09 16:17:29",45.20.98.54,"Mozilla/5.0 (Macintosh; Intel Mac OS X 10_15_5) AppleWebKit/537.36 (KHTML, like Gecko) Chrome/91.0.4472.114 Safari/537.36",Macintosh,Chrome,91.0.4472.114,"OS X",10_15_5,5f461dd6c139dd6b46c7596cbd57cd79
189,1,"""","""","""","""","""",sampler,68,185377,0.0-6.0-62.0,"""","""","""","""","""","""","""","""","""","""","""","""","2021-08-09 16:17:29",45.20.98.54,"Mozilla/5.0 (Macintosh; Intel Mac OS X 10_15_5) AppleWebKit/537.36 (KHTML, like Gecko) Chrome/91.0.4472.114 Safari/537.36",Macintosh,Chrome,91.0.4472.114,"OS X",10_15_5,5f461dd6c139dd6b46c7596cbd57cd79
189,1,"""","""","""","""","""",sampler,69,185378,0.0-6.0-63.0,"""","""","""","""","""","""","""","""","""","""","""","""","2021-08-09 16:17:29",45.20.98.54,"Mozilla/5.0 (Macintosh; Intel Mac OS X 10_15_5) AppleWebKit/537.36 (KHTML, like Gecko) Chrome/91.0.4472.114 Safari/537.36",Macintosh,Chrome,91.0.4472.114,"OS X",10_15_5,5f461dd6c139dd6b46c7596cbd57cd79
189,1,"""","""","""","""","""",sampler,70,185379,0.0-6.0-64.0,"""","""","""","""","""","""","""","""","""","""","""","""","2021-08-09 16:17:29",45.20.98.54,"Mozilla/5.0 (Macintosh; Intel Mac OS X 10_15_5) AppleWebKit/537.36 (KHTML, like Gecko) Chrome/91.0.4472.114 Safari/537.36",Macintosh,Chrome,91.0.4472.114,"OS X",10_15_5,5f461dd6c139dd6b46c7596cbd57cd79
189,1,"""","""","""","""","""",sampler,71,185379,0.0-6.0-65.0,"""","""","""","""","""","""","""","""","""","""","""","""","2021-08-09 16:17:29",45.20.98.54,"Mozilla/5.0 (Macintosh; Intel Mac OS X 10_15_5) AppleWebKit/537.36 (KHTML, like Gecko) Chrome/91.0.4472.114 Safari/537.36",Macintosh,Chrome,91.0.4472.114,"OS X",10_15_5,5f461dd6c139dd6b46c7596cbd57cd79
189,1,"""","""","""","""","""",sampler,72,185379,0.0-6.0-66.0,"""","""","""","""","""","""","""","""","""","""","""","""","2021-08-09 16:17:29",45.20.98.54,"Mozilla/5.0 (Macintosh; Intel Mac OS X 10_15_5) AppleWebKit/537.36 (KHTML, like Gecko) Chrome/91.0.4472.114 Safari/537.36",Macintosh,Chrome,91.0.4472.114,"OS X",10_15_5,5f461dd6c139dd6b46c7596cbd57cd79
189,1,"""","""","""","""","""",sampler,73,185379,0.0-6.0-67.0,"""","""","""","""","""","""","""","""","""","""","""","""","2021-08-09 16:17:29",45.20.98.54,"Mozilla/5.0 (Macintosh; Intel Mac OS X 10_15_5) AppleWebKit/537.36 (KHTML, like Gecko) Chrome/91.0.4472.114 Safari/537.36",Macintosh,Chrome,91.0.4472.114,"OS X",10_15_5,5f461dd6c139dd6b46c7596cbd57cd79
189,1,"""","""","""","""","""",sampler,74,185380,0.0-6.0-68.0,"""","""","""","""","""","""","""","""","""","""","""","""","2021-08-09 16:17:29",45.20.98.54,"Mozilla/5.0 (Macintosh; Intel Mac OS X 10_15_5) AppleWebKit/537.36 (KHTML, like Gecko) Chrome/91.0.4472.114 Safari/537.36",Macintosh,Chrome,91.0.4472.114,"OS X",10_15_5,5f461dd6c139dd6b46c7596cbd57cd79
189,1,"""","""","""","""","""",sampler,75,185380,0.0-6.0-69.0,"""","""","""","""","""","""","""","""","""","""","""","""","2021-08-09 16:17:29",45.20.98.54,"Mozilla/5.0 (Macintosh; Intel Mac OS X 10_15_5) AppleWebKit/537.36 (KHTML, like Gecko) Chrome/91.0.4472.114 Safari/537.36",Macintosh,Chrome,91.0.4472.114,"OS X",10_15_5,5f461dd6c139dd6b46c7596cbd57cd79
189,1,"""","""","""","""","""",sampler,76,185380,0.0-6.0-70.0,"""","""","""","""","""","""","""","""","""","""","""","""","2021-08-09 16:17:29",45.20.98.54,"Mozilla/5.0 (Macintosh; Intel Mac OS X 10_15_5) AppleWebKit/537.36 (KHTML, like Gecko) Chrome/91.0.4472.114 Safari/537.36",Macintosh,Chrome,91.0.4472.114,"OS X",10_15_5,5f461dd6c139dd6b46c7596cbd57cd79
189,1,"""","""","""","""","""",sampler,77,185380,0.0-6.0-71.0,"""","""","""","""","""","""","""","""","""","""","""","""","2021-08-09 16:17:29",45.20.98.54,"Mozilla/5.0 (Macintosh; Intel Mac OS X 10_15_5) AppleWebKit/537.36 (KHTML, like Gecko) Chrome/91.0.4472.114 Safari/537.36",Macintosh,Chrome,91.0.4472.114,"OS X",10_15_5,5f461dd6c139dd6b46c7596cbd57cd79
189,1,"""","""","""","""","""",sampler,78,185380,0.0-6.0-72.0,"""","""","""","""","""","""","""","""","""","""","""","""","2021-08-09 16:17:29",45.20.98.54,"Mozilla/5.0 (Macintosh; Intel Mac OS X 10_15_5) AppleWebKit/537.36 (KHTML, like Gecko) Chrome/91.0.4472.114 Safari/537.36",Macintosh,Chrome,91.0.4472.114,"OS X",10_15_5,5f461dd6c139dd6b46c7596cbd57cd79
189,1,"""","""","""","""","""",sampler,79,185380,0.0-6.0-73.0,"""","""","""","""","""","""","""","""","""","""","""","""","2021-08-09 16:17:29",45.20.98.54,"Mozilla/5.0 (Macintosh; Intel Mac OS X 10_15_5) AppleWebKit/537.36 (KHTML, like Gecko) Chrome/91.0.4472.114 Safari/537.36",Macintosh,Chrome,91.0.4472.114,"OS X",10_15_5,5f461dd6c139dd6b46c7596cbd57cd79
189,1,"""","""","""","""","""",sampler,80,185380,0.0-6.0-74.0,"""","""","""","""","""","""","""","""","""","""","""","""","2021-08-09 16:17:29",45.20.98.54,"Mozilla/5.0 (Macintosh; Intel Mac OS X 10_15_5) AppleWebKit/537.36 (KHTML, like Gecko) Chrome/91.0.4472.114 Safari/537.36",Macintosh,Chrome,91.0.4472.114,"OS X",10_15_5,5f461dd6c139dd6b46c7596cbd57cd79
189,1,"""","""","""","""","""",sampler,81,185380,0.0-6.0-75.0,"""","""","""","""","""","""","""","""","""","""","""","""","2021-08-09 16:17:29",45.20.98.54,"Mozilla/5.0 (Macintosh; Intel Mac OS X 10_15_5) AppleWebKit/537.36 (KHTML, like Gecko) Chrome/91.0.4472.114 Safari/537.36",Macintosh,Chrome,91.0.4472.114,"OS X",10_15_5,5f461dd6c139dd6b46c7596cbd57cd79
189,1,"""","""","""","""","""",sampler,82,185381,0.0-6.0-76.0,"""","""","""","""","""","""","""","""","""","""","""","""","2021-08-09 16:17:29",45.20.98.54,"Mozilla/5.0 (Macintosh; Intel Mac OS X 10_15_5) AppleWebKit/537.36 (KHTML, like Gecko) Chrome/91.0.4472.114 Safari/537.36",Macintosh,Chrome,91.0.4472.114,"OS X",10_15_5,5f461dd6c139dd6b46c7596cbd57cd79
189,1,"""","""","""","""","""",sampler,83,185381,0.0-6.0-77.0,"""","""","""","""","""","""","""","""","""","""","""","""","2021-08-09 16:17:29",45.20.98.54,"Mozilla/5.0 (Macintosh; Intel Mac OS X 10_15_5) AppleWebKit/537.36 (KHTML, like Gecko) Chrome/91.0.4472.114 Safari/537.36",Macintosh,Chrome,91.0.4472.114,"OS X",10_15_5,5f461dd6c139dd6b46c7596cbd57cd79
189,1,"""","""","""","""","""",sampler,84,185382,0.0-6.0-78.0,"""","""","""","""","""","""","""","""","""","""","""","""","2021-08-09 16:17:29",45.20.98.54,"Mozilla/5.0 (Macintosh; Intel Mac OS X 10_15_5) AppleWebKit/537.36 (KHTML, like Gecko) Chrome/91.0.4472.114 Safari/537.36",Macintosh,Chrome,91.0.4472.114,"OS X",10_15_5,5f461dd6c139dd6b46c7596cbd57cd79
189,1,"""","""","""","""","""",sampler,85,185382,0.0-6.0-79.0,"""","""","""","""","""","""","""","""","""","""","""","""","2021-08-09 16:17:29",45.20.98.54,"Mozilla/5.0 (Macintosh; Intel Mac OS X 10_15_5) AppleWebKit/537.36 (KHTML, like Gecko) Chrome/91.0.4472.114 Safari/537.36",Macintosh,Chrome,91.0.4472.114,"OS X",10_15_5,5f461dd6c139dd6b46c7596cbd57cd79
189,1,"""","""","""","""","""",sampler,86,185382,0.0-6.0-80.0,"""","""","""","""","""","""","""","""","""","""","""","""","2021-08-09 16:17:29",45.20.98.54,"Mozilla/5.0 (Macintosh; Intel Mac OS X 10_15_5) AppleWebKit/537.36 (KHTML, like Gecko) Chrome/91.0.4472.114 Safari/537.36",Macintosh,Chrome,91.0.4472.114,"OS X",10_15_5,5f461dd6c139dd6b46c7596cbd57cd79
189,1,"""","""","""","""","""",sampler,87,185382,0.0-6.0-81.0,"""","""","""","""","""","""","""","""","""","""","""","""","2021-08-09 16:17:29",45.20.98.54,"Mozilla/5.0 (Macintosh; Intel Mac OS X 10_15_5) AppleWebKit/537.36 (KHTML, like Gecko) Chrome/91.0.4472.114 Safari/537.36",Macintosh,Chrome,91.0.4472.114,"OS X",10_15_5,5f461dd6c139dd6b46c7596cbd57cd79
189,1,"""","""","""","""","""",sampler,88,185382,0.0-6.0-82.0,"""","""","""","""","""","""","""","""","""","""","""","""","2021-08-09 16:17:29",45.20.98.54,"Mozilla/5.0 (Macintosh; Intel Mac OS X 10_15_5) AppleWebKit/537.36 (KHTML, like Gecko) Chrome/91.0.4472.114 Safari/537.36",Macintosh,Chrome,91.0.4472.114,"OS X",10_15_5,5f461dd6c139dd6b46c7596cbd57cd79
189,1,"""","""","""","""","""",sampler,89,185382,0.0-6.0-83.0,"""","""","""","""","""","""","""","""","""","""","""","""","2021-08-09 16:17:29",45.20.98.54,"Mozilla/5.0 (Macintosh; Intel Mac OS X 10_15_5) AppleWebKit/537.36 (KHTML, like Gecko) Chrome/91.0.4472.114 Safari/537.36",Macintosh,Chrome,91.0.4472.114,"OS X",10_15_5,5f461dd6c139dd6b46c7596cbd57cd79
189,1,"""","""","""","""","""",sampler,90,185382,0.0-6.0-84.0,"""","""","""","""","""","""","""","""","""","""","""","""","2021-08-09 16:17:29",45.20.98.54,"Mozilla/5.0 (Macintosh; Intel Mac OS X 10_15_5) AppleWebKit/537.36 (KHTML, like Gecko) Chrome/91.0.4472.114 Safari/537.36",Macintosh,Chrome,91.0.4472.114,"OS X",10_15_5,5f461dd6c139dd6b46c7596cbd57cd79
189,1,"""","""","""","""","""",sampler,91,185382,0.0-6.0-85.0,"""","""","""","""","""","""","""","""","""","""","""","""","2021-08-09 16:17:29",45.20.98.54,"Mozilla/5.0 (Macintosh; Intel Mac OS X 10_15_5) AppleWebKit/537.36 (KHTML, like Gecko) Chrome/91.0.4472.114 Safari/537.36",Macintosh,Chrome,91.0.4472.114,"OS X",10_15_5,5f461dd6c139dd6b46c7596cbd57cd79
189,1,"""","""","""","""","""",sampler,92,185383,0.0-6.0-86.0,"""","""","""","""","""","""","""","""","""","""","""","""","2021-08-09 16:17:29",45.20.98.54,"Mozilla/5.0 (Macintosh; Intel Mac OS X 10_15_5) AppleWebKit/537.36 (KHTML, like Gecko) Chrome/91.0.4472.114 Safari/537.36",Macintosh,Chrome,91.0.4472.114,"OS X",10_15_5,5f461dd6c139dd6b46c7596cbd57cd79
189,1,"""","""","""","""","""",sampler,93,185383,0.0-6.0-87.0,"""","""","""","""","""","""","""","""","""","""","""","""","2021-08-09 16:17:29",45.20.98.54,"Mozilla/5.0 (Macintosh; Intel Mac OS X 10_15_5) AppleWebKit/537.36 (KHTML, like Gecko) Chrome/91.0.4472.114 Safari/537.36",Macintosh,Chrome,91.0.4472.114,"OS X",10_15_5,5f461dd6c139dd6b46c7596cbd57cd79
189,1,"""","""","""","""","""",sampler,94,185383,0.0-6.0-88.0,"""","""","""","""","""","""","""","""","""","""","""","""","2021-08-09 16:17:29",45.20.98.54,"Mozilla/5.0 (Macintosh; Intel Mac OS X 10_15_5) AppleWebKit/537.36 (KHTML, like Gecko) Chrome/91.0.4472.114 Safari/537.36",Macintosh,Chrome,91.0.4472.114,"OS X",10_15_5,5f461dd6c139dd6b46c7596cbd57cd79
189,1,"""","""","""","""","""",sampler,95,185383,0.0-6.0-89.0,"""","""","""","""","""","""","""","""","""","""","""","""","2021-08-09 16:17:29",45.20.98.54,"Mozilla/5.0 (Macintosh; Intel Mac OS X 10_15_5) AppleWebKit/537.36 (KHTML, like Gecko) Chrome/91.0.4472.114 Safari/537.36",Macintosh,Chrome,91.0.4472.114,"OS X",10_15_5,5f461dd6c139dd6b46c7596cbd57cd79
189,1,"""","""","""","""","""",sampler,96,185383,0.0-6.0-90.0,"""","""","""","""","""","""","""","""","""","""","""","""","2021-08-09 16:17:29",45.20.98.54,"Mozilla/5.0 (Macintosh; Intel Mac OS X 10_15_5) AppleWebKit/537.36 (KHTML, like Gecko) Chrome/91.0.4472.114 Safari/537.36",Macintosh,Chrome,91.0.4472.114,"OS X",10_15_5,5f461dd6c139dd6b46c7596cbd57cd79
189,1,"""","""","""","""","""",sampler,97,185383,0.0-6.0-91.0,"""","""","""","""","""","""","""","""","""","""","""","""","2021-08-09 16:17:29",45.20.98.54,"Mozilla/5.0 (Macintosh; Intel Mac OS X 10_15_5) AppleWebKit/537.36 (KHTML, like Gecko) Chrome/91.0.4472.114 Safari/537.36",Macintosh,Chrome,91.0.4472.114,"OS X",10_15_5,5f461dd6c139dd6b46c7596cbd57cd79
189,1,"""","""","""","""","""",sampler,98,185383,0.0-6.0-92.0,"""","""","""","""","""","""","""","""","""","""","""","""","2021-08-09 16:17:29",45.20.98.54,"Mozilla/5.0 (Macintosh; Intel Mac OS X 10_15_5) AppleWebKit/537.36 (KHTML, like Gecko) Chrome/91.0.4472.114 Safari/537.36",Macintosh,Chrome,91.0.4472.114,"OS X",10_15_5,5f461dd6c139dd6b46c7596cbd57cd79
189,1,"""","""","""","""","""",sampler,99,185383,0.0-6.0-93.0,"""","""","""","""","""","""","""","""","""","""","""","""","2021-08-09 16:17:29",45.20.98.54,"Mozilla/5.0 (Macintosh; Intel Mac OS X 10_15_5) AppleWebKit/537.36 (KHTML, like Gecko) Chrome/91.0.4472.114 Safari/537.36",Macintosh,Chrome,91.0.4472.114,"OS X",10_15_5,5f461dd6c139dd6b46c7596cbd57cd79
189,1,"""","""","""","""","""",sampler,100,185384,0.0-6.0-94.0,"""","""","""","""","""","""","""","""","""","""","""","""","2021-08-09 16:17:29",45.20.98.54,"Mozilla/5.0 (Macintosh; Intel Mac OS X 10_15_5) AppleWebKit/537.36 (KHTML, like Gecko) Chrome/91.0.4472.114 Safari/537.36",Macintosh,Chrome,91.0.4472.114,"OS X",10_15_5,5f461dd6c139dd6b46c7596cbd57cd79
189,1,"""","""","""","""","""",sampler,101,185384,0.0-6.0-95.0,"""","""","""","""","""","""","""","""","""","""","""","""","2021-08-09 16:17:29",45.20.98.54,"Mozilla/5.0 (Macintosh; Intel Mac OS X 10_15_5) AppleWebKit/537.36 (KHTML, like Gecko) Chrome/91.0.4472.114 Safari/537.36",Macintosh,Chrome,91.0.4472.114,"OS X",10_15_5,5f461dd6c139dd6b46c7596cbd57cd79
189,1,"""","""","""","""","""",sampler,102,185384,0.0-6.0-96.0,"""","""","""","""","""","""","""","""","""","""","""","""","2021-08-09 16:17:29",45.20.98.54,"Mozilla/5.0 (Macintosh; Intel Mac OS X 10_15_5) AppleWebKit/537.36 (KHTML, like Gecko) Chrome/91.0.4472.114 Safari/537.36",Macintosh,Chrome,91.0.4472.114,"OS X",10_15_5,5f461dd6c139dd6b46c7596cbd57cd79
189,1,"""","""","""","""","""",sampler,103,185384,0.0-6.0-97.0,"""","""","""","""","""","""","""","""","""","""","""","""","2021-08-09 16:17:29",45.20.98.54,"Mozilla/5.0 (Macintosh; Intel Mac OS X 10_15_5) AppleWebKit/537.36 (KHTML, like Gecko) Chrome/91.0.4472.114 Safari/537.36",Macintosh,Chrome,91.0.4472.114,"OS X",10_15_5,5f461dd6c139dd6b46c7596cbd57cd79
189,1,"""","""","""","""","""",sampler,104,185384,0.0-6.0-98.0,"""","""","""","""","""","""","""","""","""","""","""","""","2021-08-09 16:17:29",45.20.98.54,"Mozilla/5.0 (Macintosh; Intel Mac OS X 10_15_5) AppleWebKit/537.36 (KHTML, like Gecko) Chrome/91.0.4472.114 Safari/537.36",Macintosh,Chrome,91.0.4472.114,"OS X",10_15_5,5f461dd6c139dd6b46c7596cbd57cd79
189,1,"""","""","""","""","""",sampler,105,185384,0.0-6.0-99.0,"""","""","""","""","""","""","""","""","""","""","""","""","2021-08-09 16:17:29",45.20.98.54,"Mozilla/5.0 (Macintosh; Intel Mac OS X 10_15_5) AppleWebKit/537.36 (KHTML, like Gecko) Chrome/91.0.4472.114 Safari/537.36",Macintosh,Chrome,91.0.4472.114,"OS X",10_15_5,5f461dd6c139dd6b46c7596cbd57cd79
189,1,"""","""","""","""","""",sampler,106,185384,0.0-6.0-100.0,"""","""","""","""","""","""","""","""","""","""","""","""","2021-08-09 16:17:29",45.20.98.54,"Mozilla/5.0 (Macintosh; Intel Mac OS X 10_15_5) AppleWebKit/537.36 (KHTML, like Gecko) Chrome/91.0.4472.114 Safari/537.36",Macintosh,Chrome,91.0.4472.114,"OS X",10_15_5,5f461dd6c139dd6b46c7596cbd57cd79
189,1,"""","""","""","""","""",sampler,107,185384,0.0-6.0-101.0,"""","""","""","""","""","""","""","""","""","""","""","""","2021-08-09 16:17:29",45.20.98.54,"Mozilla/5.0 (Macintosh; Intel Mac OS X 10_15_5) AppleWebKit/537.36 (KHTML, like Gecko) Chrome/91.0.4472.114 Safari/537.36",Macintosh,Chrome,91.0.4472.114,"OS X",10_15_5,5f461dd6c139dd6b46c7596cbd57cd79
189,1,"""","""","""","""","""",sampler,108,185386,0.0-6.0-102.0,"""","""","""","""","""","""","""","""","""","""","""","""","2021-08-09 16:17:29",45.20.98.54,"Mozilla/5.0 (Macintosh; Intel Mac OS X 10_15_5) AppleWebKit/537.36 (KHTML, like Gecko) Chrome/91.0.4472.114 Safari/537.36",Macintosh,Chrome,91.0.4472.114,"OS X",10_15_5,5f461dd6c139dd6b46c7596cbd57cd79
189,1,"""","""","""","""","""",sampler,109,185386,0.0-6.0-103.0,"""","""","""","""","""","""","""","""","""","""","""","""","2021-08-09 16:17:29",45.20.98.54,"Mozilla/5.0 (Macintosh; Intel Mac OS X 10_15_5) AppleWebKit/537.36 (KHTML, like Gecko) Chrome/91.0.4472.114 Safari/537.36",Macintosh,Chrome,91.0.4472.114,"OS X",10_15_5,5f461dd6c139dd6b46c7596cbd57cd79
189,1,"""","""","""","""","""",sampler,110,185386,0.0-6.0-104.0,"""","""","""","""","""","""","""","""","""","""","""","""","2021-08-09 16:17:29",45.20.98.54,"Mozilla/5.0 (Macintosh; Intel Mac OS X 10_15_5) AppleWebKit/537.36 (KHTML, like Gecko) Chrome/91.0.4472.114 Safari/537.36",Macintosh,Chrome,91.0.4472.114,"OS X",10_15_5,5f461dd6c139dd6b46c7596cbd57cd79
189,1,"""","""","""","""","""",sampler,111,185386,0.0-6.0-105.0,"""","""","""","""","""","""","""","""","""","""","""","""","2021-08-09 16:17:29",45.20.98.54,"Mozilla/5.0 (Macintosh; Intel Mac OS X 10_15_5) AppleWebKit/537.36 (KHTML, like Gecko) Chrome/91.0.4472.114 Safari/537.36",Macintosh,Chrome,91.0.4472.114,"OS X",10_15_5,5f461dd6c139dd6b46c7596cbd57cd79
189,1,"""","""","""","""","""",sampler,112,185386,0.0-6.0-106.0,"""","""","""","""","""","""","""","""","""","""","""","""","2021-08-09 16:17:29",45.20.98.54,"Mozilla/5.0 (Macintosh; Intel Mac OS X 10_15_5) AppleWebKit/537.36 (KHTML, like Gecko) Chrome/91.0.4472.114 Safari/537.36",Macintosh,Chrome,91.0.4472.114,"OS X",10_15_5,5f461dd6c139dd6b46c7596cbd57cd79
189,1,"""","""","""","""","""",sampler,113,185387,0.0-6.0-107.0,"""","""","""","""","""","""","""","""","""","""","""","""","2021-08-09 16:17:29",45.20.98.54,"Mozilla/5.0 (Macintosh; Intel Mac OS X 10_15_5) AppleWebKit/537.36 (KHTML, like Gecko) Chrome/91.0.4472.114 Safari/537.36",Macintosh,Chrome,91.0.4472.114,"OS X",10_15_5,5f461dd6c139dd6b46c7596cbd57cd79
189,1,"""","""","""","""","""",sampler,114,185387,0.0-6.0-108.0,"""","""","""","""","""","""","""","""","""","""","""","""","2021-08-09 16:17:29",45.20.98.54,"Mozilla/5.0 (Macintosh; Intel Mac OS X 10_15_5) AppleWebKit/537.36 (KHTML, like Gecko) Chrome/91.0.4472.114 Safari/537.36",Macintosh,Chrome,91.0.4472.114,"OS X",10_15_5,5f461dd6c139dd6b46c7596cbd57cd79
189,1,"""","""","""","""","""",sampler,115,185387,0.0-6.0-109.0,"""","""","""","""","""","""","""","""","""","""","""","""","2021-08-09 16:17:29",45.20.98.54,"Mozilla/5.0 (Macintosh; Intel Mac OS X 10_15_5) AppleWebKit/537.36 (KHTML, like Gecko) Chrome/91.0.4472.114 Safari/537.36",Macintosh,Chrome,91.0.4472.114,"OS X",10_15_5,5f461dd6c139dd6b46c7596cbd57cd79
189,1,"""","""","""","""","""",sampler,116,185387,0.0-6.0-110.0,"""","""","""","""","""","""","""","""","""","""","""","""","2021-08-09 16:17:29",45.20.98.54,"Mozilla/5.0 (Macintosh; Intel Mac OS X 10_15_5) AppleWebKit/537.36 (KHTML, like Gecko) Chrome/91.0.4472.114 Safari/537.36",Macintosh,Chrome,91.0.4472.114,"OS X",10_15_5,5f461dd6c139dd6b46c7596cbd57cd79
189,1,"""","""","""","""","""",sampler,117,185387,0.0-6.0-111.0,"""","""","""","""","""","""","""","""","""","""","""","""","2021-08-09 16:17:29",45.20.98.54,"Mozilla/5.0 (Macintosh; Intel Mac OS X 10_15_5) AppleWebKit/537.36 (KHTML, like Gecko) Chrome/91.0.4472.114 Safari/537.36",Macintosh,Chrome,91.0.4472.114,"OS X",10_15_5,5f461dd6c139dd6b46c7596cbd57cd79
189,1,"""","""","""","""","""",sampler,118,185387,0.0-6.0-112.0,"""","""","""","""","""","""","""","""","""","""","""","""","2021-08-09 16:17:29",45.20.98.54,"Mozilla/5.0 (Macintosh; Intel Mac OS X 10_15_5) AppleWebKit/537.36 (KHTML, like Gecko) Chrome/91.0.4472.114 Safari/537.36",Macintosh,Chrome,91.0.4472.114,"OS X",10_15_5,5f461dd6c139dd6b46c7596cbd57cd79
189,1,"""","""","""","""","""",sampler,119,185387,0.0-6.0-113.0,"""","""","""","""","""","""","""","""","""","""","""","""","2021-08-09 16:17:29",45.20.98.54,"Mozilla/5.0 (Macintosh; Intel Mac OS X 10_15_5) AppleWebKit/537.36 (KHTML, like Gecko) Chrome/91.0.4472.114 Safari/537.36",Macintosh,Chrome,91.0.4472.114,"OS X",10_15_5,5f461dd6c139dd6b46c7596cbd57cd79
189,1,"""","""","""","""","""",sampler,120,185387,0.0-6.0-114.0,"""","""","""","""","""","""","""","""","""","""","""","""","2021-08-09 16:17:29",45.20.98.54,"Mozilla/5.0 (Macintosh; Intel Mac OS X 10_15_5) AppleWebKit/537.36 (KHTML, like Gecko) Chrome/91.0.4472.114 Safari/537.36",Macintosh,Chrome,91.0.4472.114,"OS X",10_15_5,5f461dd6c139dd6b46c7596cbd57cd79
189,1,"""","""","""","""","""",sampler,121,185388,0.0-6.0-115.0,"""","""","""","""","""","""","""","""","""","""","""","""","2021-08-09 16:17:29",45.20.98.54,"Mozilla/5.0 (Macintosh; Intel Mac OS X 10_15_5) AppleWebKit/537.36 (KHTML, like Gecko) Chrome/91.0.4472.114 Safari/537.36",Macintosh,Chrome,91.0.4472.114,"OS X",10_15_5,5f461dd6c139dd6b46c7596cbd57cd79
189,1,"""","""","""","""","""",sampler,122,185388,0.0-6.0-116.0,"""","""","""","""","""","""","""","""","""","""","""","""","2021-08-09 16:17:29",45.20.98.54,"Mozilla/5.0 (Macintosh; Intel Mac OS X 10_15_5) AppleWebKit/537.36 (KHTML, like Gecko) Chrome/91.0.4472.114 Safari/537.36",Macintosh,Chrome,91.0.4472.114,"OS X",10_15_5,5f461dd6c139dd6b46c7596cbd57cd79
189,1,"""","""","""","""","""",sampler,123,185388,0.0-6.0-117.0,"""","""","""","""","""","""","""","""","""","""","""","""","2021-08-09 16:17:29",45.20.98.54,"Mozilla/5.0 (Macintosh; Intel Mac OS X 10_15_5) AppleWebKit/537.36 (KHTML, like Gecko) Chrome/91.0.4472.114 Safari/537.36",Macintosh,Chrome,91.0.4472.114,"OS X",10_15_5,5f461dd6c139dd6b46c7596cbd57cd79
189,1,"""","""","""","""","""",sampler,124,185388,0.0-6.0-118.0,"""","""","""","""","""","""","""","""","""","""","""","""","2021-08-09 16:17:29",45.20.98.54,"Mozilla/5.0 (Macintosh; Intel Mac OS X 10_15_5) AppleWebKit/537.36 (KHTML, like Gecko) Chrome/91.0.4472.114 Safari/537.36",Macintosh,Chrome,91.0.4472.114,"OS X",10_15_5,5f461dd6c139dd6b46c7596cbd57cd79
189,1,"""","""","""","""","""",sampler,125,185388,0.0-6.0-119.0,"""","""","""","""","""","""","""","""","""","""","""","""","2021-08-09 16:17:29",45.20.98.54,"Mozilla/5.0 (Macintosh; Intel Mac OS X 10_15_5) AppleWebKit/537.36 (KHTML, like Gecko) Chrome/91.0.4472.114 Safari/537.36",Macintosh,Chrome,91.0.4472.114,"OS X",10_15_5,5f461dd6c139dd6b46c7596cbd57cd79
189,1,"""","""","""","""","""",sampler,126,185388,0.0-6.0-120.0,"""","""","""","""","""","""","""","""","""","""","""","""","2021-08-09 16:17:29",45.20.98.54,"Mozilla/5.0 (Macintosh; Intel Mac OS X 10_15_5) AppleWebKit/537.36 (KHTML, like Gecko) Chrome/91.0.4472.114 Safari/537.36",Macintosh,Chrome,91.0.4472.114,"OS X",10_15_5,5f461dd6c139dd6b46c7596cbd57cd79
189,1,"""","""","""","""","""",sampler,127,185388,0.0-6.0-121.0,"""","""","""","""","""","""","""","""","""","""","""","""","2021-08-09 16:17:29",45.20.98.54,"Mozilla/5.0 (Macintosh; Intel Mac OS X 10_15_5) AppleWebKit/537.36 (KHTML, like Gecko) Chrome/91.0.4472.114 Safari/537.36",Macintosh,Chrome,91.0.4472.114,"OS X",10_15_5,5f461dd6c139dd6b46c7596cbd57cd79
189,1,"""","""","""","""","""",sampler,128,185388,0.0-6.0-122.0,"""","""","""","""","""","""","""","""","""","""","""","""","2021-08-09 16:17:29",45.20.98.54,"Mozilla/5.0 (Macintosh; Intel Mac OS X 10_15_5) AppleWebKit/537.36 (KHTML, like Gecko) Chrome/91.0.4472.114 Safari/537.36",Macintosh,Chrome,91.0.4472.114,"OS X",10_15_5,5f461dd6c139dd6b46c7596cbd57cd79
189,1,"""","""","""","""","""",sampler,129,185389,0.0-6.0-123.0,"""","""","""","""","""","""","""","""","""","""","""","""","2021-08-09 16:17:29",45.20.98.54,"Mozilla/5.0 (Macintosh; Intel Mac OS X 10_15_5) AppleWebKit/537.36 (KHTML, like Gecko) Chrome/91.0.4472.114 Safari/537.36",Macintosh,Chrome,91.0.4472.114,"OS X",10_15_5,5f461dd6c139dd6b46c7596cbd57cd79
189,1,"""","""","""","""","""",sampler,130,185389,0.0-6.0-124.0,"""","""","""","""","""","""","""","""","""","""","""","""","2021-08-09 16:17:29",45.20.98.54,"Mozilla/5.0 (Macintosh; Intel Mac OS X 10_15_5) AppleWebKit/537.36 (KHTML, like Gecko) Chrome/91.0.4472.114 Safari/537.36",Macintosh,Chrome,91.0.4472.114,"OS X",10_15_5,5f461dd6c139dd6b46c7596cbd57cd79
189,1,"""","""","""","""","""",sampler,131,185389,0.0-6.0-125.0,"""","""","""","""","""","""","""","""","""","""","""","""","2021-08-09 16:17:29",45.20.98.54,"Mozilla/5.0 (Macintosh; Intel Mac OS X 10_15_5) AppleWebKit/537.36 (KHTML, like Gecko) Chrome/91.0.4472.114 Safari/537.36",Macintosh,Chrome,91.0.4472.114,"OS X",10_15_5,5f461dd6c139dd6b46c7596cbd57cd79
189,1,"""","""","""","""","""",sampler,132,185389,0.0-6.0-126.0,"""","""","""","""","""","""","""","""","""","""","""","""","2021-08-09 16:17:29",45.20.98.54,"Mozilla/5.0 (Macintosh; Intel Mac OS X 10_15_5) AppleWebKit/537.36 (KHTML, like Gecko) Chrome/91.0.4472.114 Safari/537.36",Macintosh,Chrome,91.0.4472.114,"OS X",10_15_5,5f461dd6c139dd6b46c7596cbd57cd79
189,1,"""","""","""","""","""",sampler,133,185389,0.0-6.0-127.0,"""","""","""","""","""","""","""","""","""","""","""","""","2021-08-09 16:17:29",45.20.98.54,"Mozilla/5.0 (Macintosh; Intel Mac OS X 10_15_5) AppleWebKit/537.36 (KHTML, like Gecko) Chrome/91.0.4472.114 Safari/537.36",Macintosh,Chrome,91.0.4472.114,"OS X",10_15_5,5f461dd6c139dd6b46c7596cbd57cd79
189,1,"""","""","""","""","""",sampler,134,185389,0.0-6.0-128.0,"""","""","""","""","""","""","""","""","""","""","""","""","2021-08-09 16:17:29",45.20.98.54,"Mozilla/5.0 (Macintosh; Intel Mac OS X 10_15_5) AppleWebKit/537.36 (KHTML, like Gecko) Chrome/91.0.4472.114 Safari/537.36",Macintosh,Chrome,91.0.4472.114,"OS X",10_15_5,5f461dd6c139dd6b46c7596cbd57cd79
189,1,"""","""","""","""","""",sampler,135,185389,0.0-6.0-129.0,"""","""","""","""","""","""","""","""","""","""","""","""","2021-08-09 16:17:29",45.20.98.54,"Mozilla/5.0 (Macintosh; Intel Mac OS X 10_15_5) AppleWebKit/537.36 (KHTML, like Gecko) Chrome/91.0.4472.114 Safari/537.36",Macintosh,Chrome,91.0.4472.114,"OS X",10_15_5,5f461dd6c139dd6b46c7596cbd57cd79
189,1,"""","""","""","""","""",sampler,136,185389,0.0-6.0-130.0,"""","""","""","""","""","""","""","""","""","""","""","""","2021-08-09 16:17:29",45.20.98.54,"Mozilla/5.0 (Macintosh; Intel Mac OS X 10_15_5) AppleWebKit/537.36 (KHTML, like Gecko) Chrome/91.0.4472.114 Safari/537.36",Macintosh,Chrome,91.0.4472.114,"OS X",10_15_5,5f461dd6c139dd6b46c7596cbd57cd79
189,1,"""","""","""","""","""",sampler,137,185390,0.0-6.0-131.0,"""","""","""","""","""","""","""","""","""","""","""","""","2021-08-09 16:17:29",45.20.98.54,"Mozilla/5.0 (Macintosh; Intel Mac OS X 10_15_5) AppleWebKit/537.36 (KHTML, like Gecko) Chrome/91.0.4472.114 Safari/537.36",Macintosh,Chrome,91.0.4472.114,"OS X",10_15_5,5f461dd6c139dd6b46c7596cbd57cd79
189,1,"""","""","""","""","""",sampler,138,185390,0.0-6.0-132.0,"""","""","""","""","""","""","""","""","""","""","""","""","2021-08-09 16:17:29",45.20.98.54,"Mozilla/5.0 (Macintosh; Intel Mac OS X 10_15_5) AppleWebKit/537.36 (KHTML, like Gecko) Chrome/91.0.4472.114 Safari/537.36",Macintosh,Chrome,91.0.4472.114,"OS X",10_15_5,5f461dd6c139dd6b46c7596cbd57cd79
189,1,"""","""","""","""","""",sampler,139,185390,0.0-6.0-133.0,"""","""","""","""","""","""","""","""","""","""","""","""","2021-08-09 16:17:29",45.20.98.54,"Mozilla/5.0 (Macintosh; Intel Mac OS X 10_15_5) AppleWebKit/537.36 (KHTML, like Gecko) Chrome/91.0.4472.114 Safari/537.36",Macintosh,Chrome,91.0.4472.114,"OS X",10_15_5,5f461dd6c139dd6b46c7596cbd57cd79
189,1,"""","""","""","""","""",sampler,140,185390,0.0-6.0-134.0,"""","""","""","""","""","""","""","""","""","""","""","""","2021-08-09 16:17:29",45.20.98.54,"Mozilla/5.0 (Macintosh; Intel Mac OS X 10_15_5) AppleWebKit/537.36 (KHTML, like Gecko) Chrome/91.0.4472.114 Safari/537.36",Macintosh,Chrome,91.0.4472.114,"OS X",10_15_5,5f461dd6c139dd6b46c7596cbd57cd79
189,1,"""","""","""","""","""",sampler,141,185390,0.0-6.0-135.0,"""","""","""","""","""","""","""","""","""","""","""","""","2021-08-09 16:17:29",45.20.98.54,"Mozilla/5.0 (Macintosh; Intel Mac OS X 10_15_5) AppleWebKit/537.36 (KHTML, like Gecko) Chrome/91.0.4472.114 Safari/537.36",Macintosh,Chrome,91.0.4472.114,"OS X",10_15_5,5f461dd6c139dd6b46c7596cbd57cd79
189,1,"""","""","""","""","""",sampler,142,185390,0.0-6.0-136.0,"""","""","""","""","""","""","""","""","""","""","""","""","2021-08-09 16:17:29",45.20.98.54,"Mozilla/5.0 (Macintosh; Intel Mac OS X 10_15_5) AppleWebKit/537.36 (KHTML, like Gecko) Chrome/91.0.4472.114 Safari/537.36",Macintosh,Chrome,91.0.4472.114,"OS X",10_15_5,5f461dd6c139dd6b46c7596cbd57cd79
189,1,"""","""","""","""","""",sampler,143,185390,0.0-6.0-137.0,"""","""","""","""","""","""","""","""","""","""","""","""","2021-08-09 16:17:29",45.20.98.54,"Mozilla/5.0 (Macintosh; Intel Mac OS X 10_15_5) AppleWebKit/537.36 (KHTML, like Gecko) Chrome/91.0.4472.114 Safari/537.36",Macintosh,Chrome,91.0.4472.114,"OS X",10_15_5,5f461dd6c139dd6b46c7596cbd57cd79
189,1,"""","""","""","""","""",sampler,144,185390,0.0-6.0-138.0,"""","""","""","""","""","""","""","""","""","""","""","""","2021-08-09 16:17:29",45.20.98.54,"Mozilla/5.0 (Macintosh; Intel Mac OS X 10_15_5) AppleWebKit/537.36 (KHTML, like Gecko) Chrome/91.0.4472.114 Safari/537.36",Macintosh,Chrome,91.0.4472.114,"OS X",10_15_5,5f461dd6c139dd6b46c7596cbd57cd79
189,1,"""","""","""","""","""",sampler,145,185391,0.0-6.0-139.0,"""","""","""","""","""","""","""","""","""","""","""","""","2021-08-09 16:17:29",45.20.98.54,"Mozilla/5.0 (Macintosh; Intel Mac OS X 10_15_5) AppleWebKit/537.36 (KHTML, like Gecko) Chrome/91.0.4472.114 Safari/537.36",Macintosh,Chrome,91.0.4472.114,"OS X",10_15_5,5f461dd6c139dd6b46c7596cbd57cd79
189,1,"""","""","""","""","""",sampler,146,185391,0.0-6.0-140.0,"""","""","""","""","""","""","""","""","""","""","""","""","2021-08-09 16:17:29",45.20.98.54,"Mozilla/5.0 (Macintosh; Intel Mac OS X 10_15_5) AppleWebKit/537.36 (KHTML, like Gecko) Chrome/91.0.4472.114 Safari/537.36",Macintosh,Chrome,91.0.4472.114,"OS X",10_15_5,5f461dd6c139dd6b46c7596cbd57cd79
189,1,"""","""","""","""","""",sampler,147,185391,0.0-6.0-141.0,"""","""","""","""","""","""","""","""","""","""","""","""","2021-08-09 16:17:29",45.20.98.54,"Mozilla/5.0 (Macintosh; Intel Mac OS X 10_15_5) AppleWebKit/537.36 (KHTML, like Gecko) Chrome/91.0.4472.114 Safari/537.36",Macintosh,Chrome,91.0.4472.114,"OS X",10_15_5,5f461dd6c139dd6b46c7596cbd57cd79
189,1,"""","""","""","""","""",sampler,148,185391,0.0-6.0-142.0,"""","""","""","""","""","""","""","""","""","""","""","""","2021-08-09 16:17:29",45.20.98.54,"Mozilla/5.0 (Macintosh; Intel Mac OS X 10_15_5) AppleWebKit/537.36 (KHTML, like Gecko) Chrome/91.0.4472.114 Safari/537.36",Macintosh,Chrome,91.0.4472.114,"OS X",10_15_5,5f461dd6c139dd6b46c7596cbd57cd79
189,1,"""","""","""","""","""",sampler,149,185391,0.0-6.0-143.0,"""","""","""","""","""","""","""","""","""","""","""","""","2021-08-09 16:17:29",45.20.98.54,"Mozilla/5.0 (Macintosh; Intel Mac OS X 10_15_5) AppleWebKit/537.36 (KHTML, like Gecko) Chrome/91.0.4472.114 Safari/537.36",Macintosh,Chrome,91.0.4472.114,"OS X",10_15_5,5f461dd6c139dd6b46c7596cbd57cd79
189,1,"""","""","""","""","""",sampler,150,185391,0.0-6.0-144.0,"""","""","""","""","""","""","""","""","""","""","""","""","2021-08-09 16:17:29",45.20.98.54,"Mozilla/5.0 (Macintosh; Intel Mac OS X 10_15_5) AppleWebKit/537.36 (KHTML, like Gecko) Chrome/91.0.4472.114 Safari/537.36",Macintosh,Chrome,91.0.4472.114,"OS X",10_15_5,5f461dd6c139dd6b46c7596cbd57cd79
189,1,"""","""","""","""","""",sampler,151,185391,0.0-6.0-145.0,"""","""","""","""","""","""","""","""","""","""","""","""","2021-08-09 16:17:29",45.20.98.54,"Mozilla/5.0 (Macintosh; Intel Mac OS X 10_15_5) AppleWebKit/537.36 (KHTML, like Gecko) Chrome/91.0.4472.114 Safari/537.36",Macintosh,Chrome,91.0.4472.114,"OS X",10_15_5,5f461dd6c139dd6b46c7596cbd57cd79
189,1,"""","""","""","""","""",sampler,152,185391,0.0-6.0-146.0,"""","""","""","""","""","""","""","""","""","""","""","""","2021-08-09 16:17:29",45.20.98.54,"Mozilla/5.0 (Macintosh; Intel Mac OS X 10_15_5) AppleWebKit/537.36 (KHTML, like Gecko) Chrome/91.0.4472.114 Safari/537.36",Macintosh,Chrome,91.0.4472.114,"OS X",10_15_5,5f461dd6c139dd6b46c7596cbd57cd79
189,1,"""","""","""","""","""",sampler,153,185392,0.0-6.0-147.0,"""","""","""","""","""","""","""","""","""","""","""","""","2021-08-09 16:17:29",45.20.98.54,"Mozilla/5.0 (Macintosh; Intel Mac OS X 10_15_5) AppleWebKit/537.36 (KHTML, like Gecko) Chrome/91.0.4472.114 Safari/537.36",Macintosh,Chrome,91.0.4472.114,"OS X",10_15_5,5f461dd6c139dd6b46c7596cbd57cd79
189,1,"""","""","""","""","""",sampler,154,185392,0.0-6.0-148.0,"""","""","""","""","""","""","""","""","""","""","""","""","2021-08-09 16:17:29",45.20.98.54,"Mozilla/5.0 (Macintosh; Intel Mac OS X 10_15_5) AppleWebKit/537.36 (KHTML, like Gecko) Chrome/91.0.4472.114 Safari/537.36",Macintosh,Chrome,91.0.4472.114,"OS X",10_15_5,5f461dd6c139dd6b46c7596cbd57cd79
189,1,"""","""","""","""","""",sampler,155,185392,0.0-6.0-149.0,"""","""","""","""","""","""","""","""","""","""","""","""","2021-08-09 16:17:29",45.20.98.54,"Mozilla/5.0 (Macintosh; Intel Mac OS X 10_15_5) AppleWebKit/537.36 (KHTML, like Gecko) Chrome/91.0.4472.114 Safari/537.36",Macintosh,Chrome,91.0.4472.114,"OS X",10_15_5,5f461dd6c139dd6b46c7596cbd57cd79
189,1,"""","""","""","""","""",sampler,156,185392,0.0-6.0-150.0,"""","""","""","""","""","""","""","""","""","""","""","""","2021-08-09 16:17:29",45.20.98.54,"Mozilla/5.0 (Macintosh; Intel Mac OS X 10_15_5) AppleWebKit/537.36 (KHTML, like Gecko) Chrome/91.0.4472.114 Safari/537.36",Macintosh,Chrome,91.0.4472.114,"OS X",10_15_5,5f461dd6c139dd6b46c7596cbd57cd79
189,1,"""","""","""","""","""",sampler,157,185392,0.0-6.0-151.0,"""","""","""","""","""","""","""","""","""","""","""","""","2021-08-09 16:17:29",45.20.98.54,"Mozilla/5.0 (Macintosh; Intel Mac OS X 10_15_5) AppleWebKit/537.36 (KHTML, like Gecko) Chrome/91.0.4472.114 Safari/537.36",Macintosh,Chrome,91.0.4472.114,"OS X",10_15_5,5f461dd6c139dd6b46c7596cbd57cd79
189,1,"""","""","""","""","""",sampler,158,185392,0.0-6.0-152.0,"""","""","""","""","""","""","""","""","""","""","""","""","2021-08-09 16:17:29",45.20.98.54,"Mozilla/5.0 (Macintosh; Intel Mac OS X 10_15_5) AppleWebKit/537.36 (KHTML, like Gecko) Chrome/91.0.4472.114 Safari/537.36",Macintosh,Chrome,91.0.4472.114,"OS X",10_15_5,5f461dd6c139dd6b46c7596cbd57cd79
189,1,"""","""","""","""","""",sampler,159,185392,0.0-6.0-153.0,"""","""","""","""","""","""","""","""","""","""","""","""","2021-08-09 16:17:29",45.20.98.54,"Mozilla/5.0 (Macintosh; Intel Mac OS X 10_15_5) AppleWebKit/537.36 (KHTML, like Gecko) Chrome/91.0.4472.114 Safari/537.36",Macintosh,Chrome,91.0.4472.114,"OS X",10_15_5,5f461dd6c139dd6b46c7596cbd57cd79
189,1,"""","""","""","""","""",sampler,160,185392,0.0-6.0-154.0,"""","""","""","""","""","""","""","""","""","""","""","""","2021-08-09 16:17:29",45.20.98.54,"Mozilla/5.0 (Macintosh; Intel Mac OS X 10_15_5) AppleWebKit/537.36 (KHTML, like Gecko) Chrome/91.0.4472.114 Safari/537.36",Macintosh,Chrome,91.0.4472.114,"OS X",10_15_5,5f461dd6c139dd6b46c7596cbd57cd79
189,1,"""","""","""","""","""",sampler,161,185392,0.0-6.0-155.0,"""","""","""","""","""","""","""","""","""","""","""","""","2021-08-09 16:17:29",45.20.98.54,"Mozilla/5.0 (Macintosh; Intel Mac OS X 10_15_5) AppleWebKit/537.36 (KHTML, like Gecko) Chrome/91.0.4472.114 Safari/537.36",Macintosh,Chrome,91.0.4472.114,"OS X",10_15_5,5f461dd6c139dd6b46c7596cbd57cd79
189,1,"""","""","""","""","""",sampler,162,185393,0.0-6.0-156.0,"""","""","""","""","""","""","""","""","""","""","""","""","2021-08-09 16:17:29",45.20.98.54,"Mozilla/5.0 (Macintosh; Intel Mac OS X 10_15_5) AppleWebKit/537.36 (KHTML, like Gecko) Chrome/91.0.4472.114 Safari/537.36",Macintosh,Chrome,91.0.4472.114,"OS X",10_15_5,5f461dd6c139dd6b46c7596cbd57cd79
189,1,"""","""","""","""","""",sampler,163,185393,0.0-6.0-157.0,"""","""","""","""","""","""","""","""","""","""","""","""","2021-08-09 16:17:29",45.20.98.54,"Mozilla/5.0 (Macintosh; Intel Mac OS X 10_15_5) AppleWebKit/537.36 (KHTML, like Gecko) Chrome/91.0.4472.114 Safari/537.36",Macintosh,Chrome,91.0.4472.114,"OS X",10_15_5,5f461dd6c139dd6b46c7596cbd57cd79
189,1,"""","""","""","""","""",sampler,164,185393,0.0-6.0-158.0,"""","""","""","""","""","""","""","""","""","""","""","""","2021-08-09 16:17:29",45.20.98.54,"Mozilla/5.0 (Macintosh; Intel Mac OS X 10_15_5) AppleWebKit/537.36 (KHTML, like Gecko) Chrome/91.0.4472.114 Safari/537.36",Macintosh,Chrome,91.0.4472.114,"OS X",10_15_5,5f461dd6c139dd6b46c7596cbd57cd79
189,1,"""","""","""","""","""",sampler,165,185393,0.0-6.0-159.0,"""","""","""","""","""","""","""","""","""","""","""","""","2021-08-09 16:17:29",45.20.98.54,"Mozilla/5.0 (Macintosh; Intel Mac OS X 10_15_5) AppleWebKit/537.36 (KHTML, like Gecko) Chrome/91.0.4472.114 Safari/537.36",Macintosh,Chrome,91.0.4472.114,"OS X",10_15_5,5f461dd6c139dd6b46c7596cbd57cd79
189,1,"""","""","""","""","""",sampler,166,185393,0.0-6.0-160.0,"""","""","""","""","""","""","""","""","""","""","""","""","2021-08-09 16:17:29",45.20.98.54,"Mozilla/5.0 (Macintosh; Intel Mac OS X 10_15_5) AppleWebKit/537.36 (KHTML, like Gecko) Chrome/91.0.4472.114 Safari/537.36",Macintosh,Chrome,91.0.4472.114,"OS X",10_15_5,5f461dd6c139dd6b46c7596cbd57cd79
189,1,"""","""","""","""","""",sampler,167,185393,0.0-6.0-161.0,"""","""","""","""","""","""","""","""","""","""","""","""","2021-08-09 16:17:29",45.20.98.54,"Mozilla/5.0 (Macintosh; Intel Mac OS X 10_15_5) AppleWebKit/537.36 (KHTML, like Gecko) Chrome/91.0.4472.114 Safari/537.36",Macintosh,Chrome,91.0.4472.114,"OS X",10_15_5,5f461dd6c139dd6b46c7596cbd57cd79
189,1,"""","""","""","""","""",sampler,168,185393,0.0-6.0-162.0,"""","""","""","""","""","""","""","""","""","""","""","""","2021-08-09 16:17:29",45.20.98.54,"Mozilla/5.0 (Macintosh; Intel Mac OS X 10_15_5) AppleWebKit/537.36 (KHTML, like Gecko) Chrome/91.0.4472.114 Safari/537.36",Macintosh,Chrome,91.0.4472.114,"OS X",10_15_5,5f461dd6c139dd6b46c7596cbd57cd79
189,1,"""","""","""","""","""",sampler,169,185393,0.0-6.0-163.0,"""","""","""","""","""","""","""","""","""","""","""","""","2021-08-09 16:17:29",45.20.98.54,"Mozilla/5.0 (Macintosh; Intel Mac OS X 10_15_5) AppleWebKit/537.36 (KHTML, like Gecko) Chrome/91.0.4472.114 Safari/537.36",Macintosh,Chrome,91.0.4472.114,"OS X",10_15_5,5f461dd6c139dd6b46c7596cbd57cd79
189,1,"""","""","""","""","""",sampler,170,185393,0.0-6.0-164.0,"""","""","""","""","""","""","""","""","""","""","""","""","2021-08-09 16:17:29",45.20.98.54,"Mozilla/5.0 (Macintosh; Intel Mac OS X 10_15_5) AppleWebKit/537.36 (KHTML, like Gecko) Chrome/91.0.4472.114 Safari/537.36",Macintosh,Chrome,91.0.4472.114,"OS X",10_15_5,5f461dd6c139dd6b46c7596cbd57cd79
189,1,"""","""","""","""","""",sampler,171,185394,0.0-6.0-165.0,"""","""","""","""","""","""","""","""","""","""","""","""","2021-08-09 16:17:29",45.20.98.54,"Mozilla/5.0 (Macintosh; Intel Mac OS X 10_15_5) AppleWebKit/537.36 (KHTML, like Gecko) Chrome/91.0.4472.114 Safari/537.36",Macintosh,Chrome,91.0.4472.114,"OS X",10_15_5,5f461dd6c139dd6b46c7596cbd57cd79
189,1,"""","""","""","""","""",sampler,172,185394,0.0-6.0-166.0,"""","""","""","""","""","""","""","""","""","""","""","""","2021-08-09 16:17:29",45.20.98.54,"Mozilla/5.0 (Macintosh; Intel Mac OS X 10_15_5) AppleWebKit/537.36 (KHTML, like Gecko) Chrome/91.0.4472.114 Safari/537.36",Macintosh,Chrome,91.0.4472.114,"OS X",10_15_5,5f461dd6c139dd6b46c7596cbd57cd79
189,1,"""","""","""","""","""",sampler,173,185394,0.0-6.0-167.0,"""","""","""","""","""","""","""","""","""","""","""","""","2021-08-09 16:17:29",45.20.98.54,"Mozilla/5.0 (Macintosh; Intel Mac OS X 10_15_5) AppleWebKit/537.36 (KHTML, like Gecko) Chrome/91.0.4472.114 Safari/537.36",Macintosh,Chrome,91.0.4472.114,"OS X",10_15_5,5f461dd6c139dd6b46c7596cbd57cd79
189,1,"""","""","""","""","""",sampler,174,185394,0.0-6.0-168.0,"""","""","""","""","""","""","""","""","""","""","""","""","2021-08-09 16:17:29",45.20.98.54,"Mozilla/5.0 (Macintosh; Intel Mac OS X 10_15_5) AppleWebKit/537.36 (KHTML, like Gecko) Chrome/91.0.4472.114 Safari/537.36",Macintosh,Chrome,91.0.4472.114,"OS X",10_15_5,5f461dd6c139dd6b46c7596cbd57cd79
189,1,"""","""","""","""","""",sampler,175,185394,0.0-6.0-169.0,"""","""","""","""","""","""","""","""","""","""","""","""","2021-08-09 16:17:29",45.20.98.54,"Mozilla/5.0 (Macintosh; Intel Mac OS X 10_15_5) AppleWebKit/537.36 (KHTML, like Gecko) Chrome/91.0.4472.114 Safari/537.36",Macintosh,Chrome,91.0.4472.114,"OS X",10_15_5,5f461dd6c139dd6b46c7596cbd57cd79
189,1,"""","""","""","""","""",sampler,176,185394,0.0-6.0-170.0,"""","""","""","""","""","""","""","""","""","""","""","""","2021-08-09 16:17:29",45.20.98.54,"Mozilla/5.0 (Macintosh; Intel Mac OS X 10_15_5) AppleWebKit/537.36 (KHTML, like Gecko) Chrome/91.0.4472.114 Safari/537.36",Macintosh,Chrome,91.0.4472.114,"OS X",10_15_5,5f461dd6c139dd6b46c7596cbd57cd79
189,1,"""","""","""","""","""",sampler,177,185394,0.0-6.0-171.0,"""","""","""","""","""","""","""","""","""","""","""","""","2021-08-09 16:17:29",45.20.98.54,"Mozilla/5.0 (Macintosh; Intel Mac OS X 10_15_5) AppleWebKit/537.36 (KHTML, like Gecko) Chrome/91.0.4472.114 Safari/537.36",Macintosh,Chrome,91.0.4472.114,"OS X",10_15_5,5f461dd6c139dd6b46c7596cbd57cd79
189,1,"""","""","""","""","""",sampler,178,185394,0.0-6.0-172.0,"""","""","""","""","""","""","""","""","""","""","""","""","2021-08-09 16:17:29",45.20.98.54,"Mozilla/5.0 (Macintosh; Intel Mac OS X 10_15_5) AppleWebKit/537.36 (KHTML, like Gecko) Chrome/91.0.4472.114 Safari/537.36",Macintosh,Chrome,91.0.4472.114,"OS X",10_15_5,5f461dd6c139dd6b46c7596cbd57cd79
189,1,"""","""","""","""","""",sampler,179,185394,0.0-6.0-173.0,"""","""","""","""","""","""","""","""","""","""","""","""","2021-08-09 16:17:29",45.20.98.54,"Mozilla/5.0 (Macintosh; Intel Mac OS X 10_15_5) AppleWebKit/537.36 (KHTML, like Gecko) Chrome/91.0.4472.114 Safari/537.36",Macintosh,Chrome,91.0.4472.114,"OS X",10_15_5,5f461dd6c139dd6b46c7596cbd57cd79
189,1,"""","""","""","""","""",sampler,180,185394,0.0-6.0-174.0,"""","""","""","""","""","""","""","""","""","""","""","""","2021-08-09 16:17:29",45.20.98.54,"Mozilla/5.0 (Macintosh; Intel Mac OS X 10_15_5) AppleWebKit/537.36 (KHTML, like Gecko) Chrome/91.0.4472.114 Safari/537.36",Macintosh,Chrome,91.0.4472.114,"OS X",10_15_5,5f461dd6c139dd6b46c7596cbd57cd79
189,1,"""","""","""","""","""",sampler,181,185395,0.0-6.0-175.0,"""","""","""","""","""","""","""","""","""","""","""","""","2021-08-09 16:17:29",45.20.98.54,"Mozilla/5.0 (Macintosh; Intel Mac OS X 10_15_5) AppleWebKit/537.36 (KHTML, like Gecko) Chrome/91.0.4472.114 Safari/537.36",Macintosh,Chrome,91.0.4472.114,"OS X",10_15_5,5f461dd6c139dd6b46c7596cbd57cd79
189,1,"""","""","""","""","""",sampler,182,185395,0.0-6.0-176.0,"""","""","""","""","""","""","""","""","""","""","""","""","2021-08-09 16:17:29",45.20.98.54,"Mozilla/5.0 (Macintosh; Intel Mac OS X 10_15_5) AppleWebKit/537.36 (KHTML, like Gecko) Chrome/91.0.4472.114 Safari/537.36",Macintosh,Chrome,91.0.4472.114,"OS X",10_15_5,5f461dd6c139dd6b46c7596cbd57cd79
189,1,"""","""","""","""","""",sampler,183,185395,0.0-6.0-177.0,"""","""","""","""","""","""","""","""","""","""","""","""","2021-08-09 16:17:29",45.20.98.54,"Mozilla/5.0 (Macintosh; Intel Mac OS X 10_15_5) AppleWebKit/537.36 (KHTML, like Gecko) Chrome/91.0.4472.114 Safari/537.36",Macintosh,Chrome,91.0.4472.114,"OS X",10_15_5,5f461dd6c139dd6b46c7596cbd57cd79
189,1,"""","""","""","""","""",sampler,184,185395,0.0-6.0-178.0,"""","""","""","""","""","""","""","""","""","""","""","""","2021-08-09 16:17:29",45.20.98.54,"Mozilla/5.0 (Macintosh; Intel Mac OS X 10_15_5) AppleWebKit/537.36 (KHTML, like Gecko) Chrome/91.0.4472.114 Safari/537.36",Macintosh,Chrome,91.0.4472.114,"OS X",10_15_5,5f461dd6c139dd6b46c7596cbd57cd79
189,1,"""","""","""","""","""",sampler,185,185395,0.0-6.0-179.0,"""","""","""","""","""","""","""","""","""","""","""","""","2021-08-09 16:17:29",45.20.98.54,"Mozilla/5.0 (Macintosh; Intel Mac OS X 10_15_5) AppleWebKit/537.36 (KHTML, like Gecko) Chrome/91.0.4472.114 Safari/537.36",Macintosh,Chrome,91.0.4472.114,"OS X",10_15_5,5f461dd6c139dd6b46c7596cbd57cd79
189,1,"""","""","""","""","""",sampler,186,185395,0.0-6.0-180.0,"""","""","""","""","""","""","""","""","""","""","""","""","2021-08-09 16:17:29",45.20.98.54,"Mozilla/5.0 (Macintosh; Intel Mac OS X 10_15_5) AppleWebKit/537.36 (KHTML, like Gecko) Chrome/91.0.4472.114 Safari/537.36",Macintosh,Chrome,91.0.4472.114,"OS X",10_15_5,5f461dd6c139dd6b46c7596cbd57cd79
189,1,"""","""","""","""","""",sampler,187,185395,0.0-6.0-181.0,"""","""","""","""","""","""","""","""","""","""","""","""","2021-08-09 16:17:29",45.20.98.54,"Mozilla/5.0 (Macintosh; Intel Mac OS X 10_15_5) AppleWebKit/537.36 (KHTML, like Gecko) Chrome/91.0.4472.114 Safari/537.36",Macintosh,Chrome,91.0.4472.114,"OS X",10_15_5,5f461dd6c139dd6b46c7596cbd57cd79
189,1,"""","""","""","""","""",sampler,188,185395,0.0-6.0-182.0,"""","""","""","""","""","""","""","""","""","""","""","""","2021-08-09 16:17:29",45.20.98.54,"Mozilla/5.0 (Macintosh; Intel Mac OS X 10_15_5) AppleWebKit/537.36 (KHTML, like Gecko) Chrome/91.0.4472.114 Safari/537.36",Macintosh,Chrome,91.0.4472.114,"OS X",10_15_5,5f461dd6c139dd6b46c7596cbd57cd79
189,1,"""","""","""","""","""",sampler,189,185395,0.0-6.0-183.0,"""","""","""","""","""","""","""","""","""","""","""","""","2021-08-09 16:17:29",45.20.98.54,"Mozilla/5.0 (Macintosh; Intel Mac OS X 10_15_5) AppleWebKit/537.36 (KHTML, like Gecko) Chrome/91.0.4472.114 Safari/537.36",Macintosh,Chrome,91.0.4472.114,"OS X",10_15_5,5f461dd6c139dd6b46c7596cbd57cd79
189,1,"""","""","""","""","""",sampler,190,185395,0.0-6.0-184.0,"""","""","""","""","""","""","""","""","""","""","""","""","2021-08-09 16:17:29",45.20.98.54,"Mozilla/5.0 (Macintosh; Intel Mac OS X 10_15_5) AppleWebKit/537.36 (KHTML, like Gecko) Chrome/91.0.4472.114 Safari/537.36",Macintosh,Chrome,91.0.4472.114,"OS X",10_15_5,5f461dd6c139dd6b46c7596cbd57cd79
189,1,"""","""","""","""","""",sampler,191,185396,0.0-6.0-185.0,"""","""","""","""","""","""","""","""","""","""","""","""","2021-08-09 16:17:29",45.20.98.54,"Mozilla/5.0 (Macintosh; Intel Mac OS X 10_15_5) AppleWebKit/537.36 (KHTML, like Gecko) Chrome/91.0.4472.114 Safari/537.36",Macintosh,Chrome,91.0.4472.114,"OS X",10_15_5,5f461dd6c139dd6b46c7596cbd57cd79
189,1,"""","""","""","""","""",sampler,192,185396,0.0-6.0-186.0,"""","""","""","""","""","""","""","""","""","""","""","""","2021-08-09 16:17:29",45.20.98.54,"Mozilla/5.0 (Macintosh; Intel Mac OS X 10_15_5) AppleWebKit/537.36 (KHTML, like Gecko) Chrome/91.0.4472.114 Safari/537.36",Macintosh,Chrome,91.0.4472.114,"OS X",10_15_5,5f461dd6c139dd6b46c7596cbd57cd79
189,1,"""","""","""","""","""",sampler,193,185396,0.0-6.0-187.0,"""","""","""","""","""","""","""","""","""","""","""","""","2021-08-09 16:17:29",45.20.98.54,"Mozilla/5.0 (Macintosh; Intel Mac OS X 10_15_5) AppleWebKit/537.36 (KHTML, like Gecko) Chrome/91.0.4472.114 Safari/537.36",Macintosh,Chrome,91.0.4472.114,"OS X",10_15_5,5f461dd6c139dd6b46c7596cbd57cd79
189,1,"""","""","""","""","""",sampler,194,185396,0.0-6.0-188.0,"""","""","""","""","""","""","""","""","""","""","""","""","2021-08-09 16:17:29",45.20.98.54,"Mozilla/5.0 (Macintosh; Intel Mac OS X 10_15_5) AppleWebKit/537.36 (KHTML, like Gecko) Chrome/91.0.4472.114 Safari/537.36",Macintosh,Chrome,91.0.4472.114,"OS X",10_15_5,5f461dd6c139dd6b46c7596cbd57cd79
189,1,"""","""","""","""","""",sampler,195,185396,0.0-6.0-189.0,"""","""","""","""","""","""","""","""","""","""","""","""","2021-08-09 16:17:29",45.20.98.54,"Mozilla/5.0 (Macintosh; Intel Mac OS X 10_15_5) AppleWebKit/537.36 (KHTML, like Gecko) Chrome/91.0.4472.114 Safari/537.36",Macintosh,Chrome,91.0.4472.114,"OS X",10_15_5,5f461dd6c139dd6b46c7596cbd57cd79
189,1,"""","""","""","""","""",sampler,196,185396,0.0-6.0-190.0,"""","""","""","""","""","""","""","""","""","""","""","""","2021-08-09 16:17:29",45.20.98.54,"Mozilla/5.0 (Macintosh; Intel Mac OS X 10_15_5) AppleWebKit/537.36 (KHTML, like Gecko) Chrome/91.0.4472.114 Safari/537.36",Macintosh,Chrome,91.0.4472.114,"OS X",10_15_5,5f461dd6c139dd6b46c7596cbd57cd79
189,1,"""","""","""","""","""",sampler,197,185396,0.0-6.0-191.0,"""","""","""","""","""","""","""","""","""","""","""","""","2021-08-09 16:17:29",45.20.98.54,"Mozilla/5.0 (Macintosh; Intel Mac OS X 10_15_5) AppleWebKit/537.36 (KHTML, like Gecko) Chrome/91.0.4472.114 Safari/537.36",Macintosh,Chrome,91.0.4472.114,"OS X",10_15_5,5f461dd6c139dd6b46c7596cbd57cd79
189,1,"""","""","""","""","""",sampler,198,185396,0.0-6.0-192.0,"""","""","""","""","""","""","""","""","""","""","""","""","2021-08-09 16:17:29",45.20.98.54,"Mozilla/5.0 (Macintosh; Intel Mac OS X 10_15_5) AppleWebKit/537.36 (KHTML, like Gecko) Chrome/91.0.4472.114 Safari/537.36",Macintosh,Chrome,91.0.4472.114,"OS X",10_15_5,5f461dd6c139dd6b46c7596cbd57cd79
189,1,"""","""","""","""","""",sampler,199,185396,0.0-6.0-193.0,"""","""","""","""","""","""","""","""","""","""","""","""","2021-08-09 16:17:29",45.20.98.54,"Mozilla/5.0 (Macintosh; Intel Mac OS X 10_15_5) AppleWebKit/537.36 (KHTML, like Gecko) Chrome/91.0.4472.114 Safari/537.36",Macintosh,Chrome,91.0.4472.114,"OS X",10_15_5,5f461dd6c139dd6b46c7596cbd57cd79
189,1,"""","""","""","""","""",sampler,200,185397,0.0-6.0-194.0,"""","""","""","""","""","""","""","""","""","""","""","""","2021-08-09 16:17:29",45.20.98.54,"Mozilla/5.0 (Macintosh; Intel Mac OS X 10_15_5) AppleWebKit/537.36 (KHTML, like Gecko) Chrome/91.0.4472.114 Safari/537.36",Macintosh,Chrome,91.0.4472.114,"OS X",10_15_5,5f461dd6c139dd6b46c7596cbd57cd79
189,1,"""","""","""","""","""",sampler,201,185397,0.0-6.0-195.0,"""","""","""","""","""","""","""","""","""","""","""","""","2021-08-09 16:17:29",45.20.98.54,"Mozilla/5.0 (Macintosh; Intel Mac OS X 10_15_5) AppleWebKit/537.36 (KHTML, like Gecko) Chrome/91.0.4472.114 Safari/537.36",Macintosh,Chrome,91.0.4472.114,"OS X",10_15_5,5f461dd6c139dd6b46c7596cbd57cd79
189,1,"""","""","""","""","""",sampler,202,185398,0.0-6.0-196.0,"""","""","""","""","""","""","""","""","""","""","""","""","2021-08-09 16:17:29",45.20.98.54,"Mozilla/5.0 (Macintosh; Intel Mac OS X 10_15_5) AppleWebKit/537.36 (KHTML, like Gecko) Chrome/91.0.4472.114 Safari/537.36",Macintosh,Chrome,91.0.4472.114,"OS X",10_15_5,5f461dd6c139dd6b46c7596cbd57cd79
189,1,"""","""","""","""","""",sampler,203,185398,0.0-6.0-197.0,"""","""","""","""","""","""","""","""","""","""","""","""","2021-08-09 16:17:29",45.20.98.54,"Mozilla/5.0 (Macintosh; Intel Mac OS X 10_15_5) AppleWebKit/537.36 (KHTML, like Gecko) Chrome/91.0.4472.114 Safari/537.36",Macintosh,Chrome,91.0.4472.114,"OS X",10_15_5,5f461dd6c139dd6b46c7596cbd57cd79
189,1,"""","""","""","""","""",sampler,204,185398,0.0-6.0-198.0,"""","""","""","""","""","""","""","""","""","""","""","""","2021-08-09 16:17:29",45.20.98.54,"Mozilla/5.0 (Macintosh; Intel Mac OS X 10_15_5) AppleWebKit/537.36 (KHTML, like Gecko) Chrome/91.0.4472.114 Safari/537.36",Macintosh,Chrome,91.0.4472.114,"OS X",10_15_5,5f461dd6c139dd6b46c7596cbd57cd79
189,1,"""","""","""","""","""",sampler,205,185398,0.0-6.0-199.0,"""","""","""","""","""","""","""","""","""","""","""","""","2021-08-09 16:17:29",45.20.98.54,"Mozilla/5.0 (Macintosh; Intel Mac OS X 10_15_5) AppleWebKit/537.36 (KHTML, like Gecko) Chrome/91.0.4472.114 Safari/537.36",Macintosh,Chrome,91.0.4472.114,"OS X",10_15_5,5f461dd6c139dd6b46c7596cbd57cd79
189,1,"""","""","""","""","""",sampler,206,185398,0.0-6.0-200.0,"""","""","""","""","""","""","""","""","""","""","""","""","2021-08-09 16:17:29",45.20.98.54,"Mozilla/5.0 (Macintosh; Intel Mac OS X 10_15_5) AppleWebKit/537.36 (KHTML, like Gecko) Chrome/91.0.4472.114 Safari/537.36",Macintosh,Chrome,91.0.4472.114,"OS X",10_15_5,5f461dd6c139dd6b46c7596cbd57cd79
189,1,"""","""","""","""","""",sampler,207,185398,0.0-6.0-201.0,"""","""","""","""","""","""","""","""","""","""","""","""","2021-08-09 16:17:29",45.20.98.54,"Mozilla/5.0 (Macintosh; Intel Mac OS X 10_15_5) AppleWebKit/537.36 (KHTML, like Gecko) Chrome/91.0.4472.114 Safari/537.36",Macintosh,Chrome,91.0.4472.114,"OS X",10_15_5,5f461dd6c139dd6b46c7596cbd57cd79
189,1,"""","""","""","""","""",sampler,208,185398,0.0-6.0-202.0,"""","""","""","""","""","""","""","""","""","""","""","""","2021-08-09 16:17:29",45.20.98.54,"Mozilla/5.0 (Macintosh; Intel Mac OS X 10_15_5) AppleWebKit/537.36 (KHTML, like Gecko) Chrome/91.0.4472.114 Safari/537.36",Macintosh,Chrome,91.0.4472.114,"OS X",10_15_5,5f461dd6c139dd6b46c7596cbd57cd79
189,1,"""","""","""","""","""",sampler,209,185399,0.0-6.0-203.0,"""","""","""","""","""","""","""","""","""","""","""","""","2021-08-09 16:17:29",45.20.98.54,"Mozilla/5.0 (Macintosh; Intel Mac OS X 10_15_5) AppleWebKit/537.36 (KHTML, like Gecko) Chrome/91.0.4472.114 Safari/537.36",Macintosh,Chrome,91.0.4472.114,"OS X",10_15_5,5f461dd6c139dd6b46c7596cbd57cd79
189,1,"""","""","""","""","""",sampler,210,185399,0.0-6.0-204.0,"""","""","""","""","""","""","""","""","""","""","""","""","2021-08-09 16:17:29",45.20.98.54,"Mozilla/5.0 (Macintosh; Intel Mac OS X 10_15_5) AppleWebKit/537.36 (KHTML, like Gecko) Chrome/91.0.4472.114 Safari/537.36",Macintosh,Chrome,91.0.4472.114,"OS X",10_15_5,5f461dd6c139dd6b46c7596cbd57cd79
189,1,"""","""","""","""","""",sampler,211,185399,0.0-6.0-205.0,"""","""","""","""","""","""","""","""","""","""","""","""","2021-08-09 16:17:29",45.20.98.54,"Mozilla/5.0 (Macintosh; Intel Mac OS X 10_15_5) AppleWebKit/537.36 (KHTML, like Gecko) Chrome/91.0.4472.114 Safari/537.36",Macintosh,Chrome,91.0.4472.114,"OS X",10_15_5,5f461dd6c139dd6b46c7596cbd57cd79
189,1,"""","""","""","""","""",sampler,212,185399,0.0-6.0-206.0,"""","""","""","""","""","""","""","""","""","""","""","""","2021-08-09 16:17:29",45.20.98.54,"Mozilla/5.0 (Macintosh; Intel Mac OS X 10_15_5) AppleWebKit/537.36 (KHTML, like Gecko) Chrome/91.0.4472.114 Safari/537.36",Macintosh,Chrome,91.0.4472.114,"OS X",10_15_5,5f461dd6c139dd6b46c7596cbd57cd79
189,1,"""","""","""","""","""",sampler,213,185399,0.0-6.0-207.0,"""","""","""","""","""","""","""","""","""","""","""","""","2021-08-09 16:17:29",45.20.98.54,"Mozilla/5.0 (Macintosh; Intel Mac OS X 10_15_5) AppleWebKit/537.36 (KHTML, like Gecko) Chrome/91.0.4472.114 Safari/537.36",Macintosh,Chrome,91.0.4472.114,"OS X",10_15_5,5f461dd6c139dd6b46c7596cbd57cd79
189,1,"""","""","""","""","""",sampler,214,185399,0.0-6.0-208.0,"""","""","""","""","""","""","""","""","""","""","""","""","2021-08-09 16:17:29",45.20.98.54,"Mozilla/5.0 (Macintosh; Intel Mac OS X 10_15_5) AppleWebKit/537.36 (KHTML, like Gecko) Chrome/91.0.4472.114 Safari/537.36",Macintosh,Chrome,91.0.4472.114,"OS X",10_15_5,5f461dd6c139dd6b46c7596cbd57cd79
189,1,"""","""","""","""","""",sampler,215,185399,0.0-6.0-209.0,"""","""","""","""","""","""","""","""","""","""","""","""","2021-08-09 16:17:29",45.20.98.54,"Mozilla/5.0 (Macintosh; Intel Mac OS X 10_15_5) AppleWebKit/537.36 (KHTML, like Gecko) Chrome/91.0.4472.114 Safari/537.36",Macintosh,Chrome,91.0.4472.114,"OS X",10_15_5,5f461dd6c139dd6b46c7596cbd57cd79
189,1,"""","""","""","""","""",sampler,216,185399,0.0-6.0-210.0,"""","""","""","""","""","""","""","""","""","""","""","""","2021-08-09 16:17:29",45.20.98.54,"Mozilla/5.0 (Macintosh; Intel Mac OS X 10_15_5) AppleWebKit/537.36 (KHTML, like Gecko) Chrome/91.0.4472.114 Safari/537.36",Macintosh,Chrome,91.0.4472.114,"OS X",10_15_5,5f461dd6c139dd6b46c7596cbd57cd79
189,1,"""","""","""","""","""",sampler,217,185399,0.0-6.0-211.0,"""","""","""","""","""","""","""","""","""","""","""","""","2021-08-09 16:17:29",45.20.98.54,"Mozilla/5.0 (Macintosh; Intel Mac OS X 10_15_5) AppleWebKit/537.36 (KHTML, like Gecko) Chrome/91.0.4472.114 Safari/537.36",Macintosh,Chrome,91.0.4472.114,"OS X",10_15_5,5f461dd6c139dd6b46c7596cbd57cd79
189,1,"""","""","""","""","""",sampler,218,185400,0.0-6.0-212.0,"""","""","""","""","""","""","""","""","""","""","""","""","2021-08-09 16:17:29",45.20.98.54,"Mozilla/5.0 (Macintosh; Intel Mac OS X 10_15_5) AppleWebKit/537.36 (KHTML, like Gecko) Chrome/91.0.4472.114 Safari/537.36",Macintosh,Chrome,91.0.4472.114,"OS X",10_15_5,5f461dd6c139dd6b46c7596cbd57cd79
189,1,"""","""","""","""","""",sampler,219,185400,0.0-6.0-213.0,"""","""","""","""","""","""","""","""","""","""","""","""","2021-08-09 16:17:29",45.20.98.54,"Mozilla/5.0 (Macintosh; Intel Mac OS X 10_15_5) AppleWebKit/537.36 (KHTML, like Gecko) Chrome/91.0.4472.114 Safari/537.36",Macintosh,Chrome,91.0.4472.114,"OS X",10_15_5,5f461dd6c139dd6b46c7596cbd57cd79
189,1,"""","""","""","""","""",sampler,220,185400,0.0-6.0-214.0,"""","""","""","""","""","""","""","""","""","""","""","""","2021-08-09 16:17:29",45.20.98.54,"Mozilla/5.0 (Macintosh; Intel Mac OS X 10_15_5) AppleWebKit/537.36 (KHTML, like Gecko) Chrome/91.0.4472.114 Safari/537.36",Macintosh,Chrome,91.0.4472.114,"OS X",10_15_5,5f461dd6c139dd6b46c7596cbd57cd79
189,1,"""","""","""","""","""",sampler,221,185400,0.0-6.0-215.0,"""","""","""","""","""","""","""","""","""","""","""","""","2021-08-09 16:17:29",45.20.98.54,"Mozilla/5.0 (Macintosh; Intel Mac OS X 10_15_5) AppleWebKit/537.36 (KHTML, like Gecko) Chrome/91.0.4472.114 Safari/537.36",Macintosh,Chrome,91.0.4472.114,"OS X",10_15_5,5f461dd6c139dd6b46c7596cbd57cd79
189,1,"""","""","""","""","""",sampler,222,185400,0.0-6.0-216.0,"""","""","""","""","""","""","""","""","""","""","""","""","2021-08-09 16:17:29",45.20.98.54,"Mozilla/5.0 (Macintosh; Intel Mac OS X 10_15_5) AppleWebKit/537.36 (KHTML, like Gecko) Chrome/91.0.4472.114 Safari/537.36",Macintosh,Chrome,91.0.4472.114,"OS X",10_15_5,5f461dd6c139dd6b46c7596cbd57cd79
189,1,"""","""","""","""","""",sampler,223,185400,0.0-6.0-217.0,"""","""","""","""","""","""","""","""","""","""","""","""","2021-08-09 16:17:29",45.20.98.54,"Mozilla/5.0 (Macintosh; Intel Mac OS X 10_15_5) AppleWebKit/537.36 (KHTML, like Gecko) Chrome/91.0.4472.114 Safari/537.36",Macintosh,Chrome,91.0.4472.114,"OS X",10_15_5,5f461dd6c139dd6b46c7596cbd57cd79
189,1,"""","""","""","""","""",sampler,224,185400,0.0-6.0-218.0,"""","""","""","""","""","""","""","""","""","""","""","""","2021-08-09 16:17:29",45.20.98.54,"Mozilla/5.0 (Macintosh; Intel Mac OS X 10_15_5) AppleWebKit/537.36 (KHTML, like Gecko) Chrome/91.0.4472.114 Safari/537.36",Macintosh,Chrome,91.0.4472.114,"OS X",10_15_5,5f461dd6c139dd6b46c7596cbd57cd79
189,1,"""","""","""","""","""",sampler,225,185400,0.0-6.0-219.0,"""","""","""","""","""","""","""","""","""","""","""","""","2021-08-09 16:17:29",45.20.98.54,"Mozilla/5.0 (Macintosh; Intel Mac OS X 10_15_5) AppleWebKit/537.36 (KHTML, like Gecko) Chrome/91.0.4472.114 Safari/537.36",Macintosh,Chrome,91.0.4472.114,"OS X",10_15_5,5f461dd6c139dd6b46c7596cbd57cd79
189,1,"""","""","""","""","""",sampler,226,185400,0.0-6.0-220.0,"""","""","""","""","""","""","""","""","""","""","""","""","2021-08-09 16:17:29",45.20.98.54,"Mozilla/5.0 (Macintosh; Intel Mac OS X 10_15_5) AppleWebKit/537.36 (KHTML, like Gecko) Chrome/91.0.4472.114 Safari/537.36",Macintosh,Chrome,91.0.4472.114,"OS X",10_15_5,5f461dd6c139dd6b46c7596cbd57cd79
189,1,"""","""","""","""","""",sampler,227,185400,0.0-6.0-221.0,"""","""","""","""","""","""","""","""","""","""","""","""","2021-08-09 16:17:29",45.20.98.54,"Mozilla/5.0 (Macintosh; Intel Mac OS X 10_15_5) AppleWebKit/537.36 (KHTML, like Gecko) Chrome/91.0.4472.114 Safari/537.36",Macintosh,Chrome,91.0.4472.114,"OS X",10_15_5,5f461dd6c139dd6b46c7596cbd57cd79
189,1,"""","""","""","""","""",sampler,228,185401,0.0-6.0-222.0,"""","""","""","""","""","""","""","""","""","""","""","""","2021-08-09 16:17:29",45.20.98.54,"Mozilla/5.0 (Macintosh; Intel Mac OS X 10_15_5) AppleWebKit/537.36 (KHTML, like Gecko) Chrome/91.0.4472.114 Safari/537.36",Macintosh,Chrome,91.0.4472.114,"OS X",10_15_5,5f461dd6c139dd6b46c7596cbd57cd79
189,1,"""","""","""","""","""",sampler,229,185401,0.0-6.0-223.0,"""","""","""","""","""","""","""","""","""","""","""","""","2021-08-09 16:17:29",45.20.98.54,"Mozilla/5.0 (Macintosh; Intel Mac OS X 10_15_5) AppleWebKit/537.36 (KHTML, like Gecko) Chrome/91.0.4472.114 Safari/537.36",Macintosh,Chrome,91.0.4472.114,"OS X",10_15_5,5f461dd6c139dd6b46c7596cbd57cd79
189,1,"""","""","""","""","""",sampler,230,185401,0.0-6.0-224.0,"""","""","""","""","""","""","""","""","""","""","""","""","2021-08-09 16:17:29",45.20.98.54,"Mozilla/5.0 (Macintosh; Intel Mac OS X 10_15_5) AppleWebKit/537.36 (KHTML, like Gecko) Chrome/91.0.4472.114 Safari/537.36",Macintosh,Chrome,91.0.4472.114,"OS X",10_15_5,5f461dd6c139dd6b46c7596cbd57cd79
189,1,"""","""","""","""","""",sampler,231,185401,0.0-6.0-225.0,"""","""","""","""","""","""","""","""","""","""","""","""","2021-08-09 16:17:29",45.20.98.54,"Mozilla/5.0 (Macintosh; Intel Mac OS X 10_15_5) AppleWebKit/537.36 (KHTML, like Gecko) Chrome/91.0.4472.114 Safari/537.36",Macintosh,Chrome,91.0.4472.114,"OS X",10_15_5,5f461dd6c139dd6b46c7596cbd57cd79
189,1,"""","""","""","""","""",sampler,232,185401,0.0-6.0-226.0,"""","""","""","""","""","""","""","""","""","""","""","""","2021-08-09 16:17:29",45.20.98.54,"Mozilla/5.0 (Macintosh; Intel Mac OS X 10_15_5) AppleWebKit/537.36 (KHTML, like Gecko) Chrome/91.0.4472.114 Safari/537.36",Macintosh,Chrome,91.0.4472.114,"OS X",10_15_5,5f461dd6c139dd6b46c7596cbd57cd79
189,1,"""","""","""","""","""",sampler,233,185401,0.0-6.0-227.0,"""","""","""","""","""","""","""","""","""","""","""","""","2021-08-09 16:17:29",45.20.98.54,"Mozilla/5.0 (Macintosh; Intel Mac OS X 10_15_5) AppleWebKit/537.36 (KHTML, like Gecko) Chrome/91.0.4472.114 Safari/537.36",Macintosh,Chrome,91.0.4472.114,"OS X",10_15_5,5f461dd6c139dd6b46c7596cbd57cd79
189,1,"""","""","""","""","""",sampler,234,185401,0.0-6.0-228.0,"""","""","""","""","""","""","""","""","""","""","""","""","2021-08-09 16:17:29",45.20.98.54,"Mozilla/5.0 (Macintosh; Intel Mac OS X 10_15_5) AppleWebKit/537.36 (KHTML, like Gecko) Chrome/91.0.4472.114 Safari/537.36",Macintosh,Chrome,91.0.4472.114,"OS X",10_15_5,5f461dd6c139dd6b46c7596cbd57cd79
189,1,"""","""","""","""","""",sampler,235,185401,0.0-6.0-229.0,"""","""","""","""","""","""","""","""","""","""","""","""","2021-08-09 16:17:29",45.20.98.54,"Mozilla/5.0 (Macintosh; Intel Mac OS X 10_15_5) AppleWebKit/537.36 (KHTML, like Gecko) Chrome/91.0.4472.114 Safari/537.36",Macintosh,Chrome,91.0.4472.114,"OS X",10_15_5,5f461dd6c139dd6b46c7596cbd57cd79
189,1,"""","""","""","""","""",sampler,236,185401,0.0-6.0-230.0,"""","""","""","""","""","""","""","""","""","""","""","""","2021-08-09 16:17:29",45.20.98.54,"Mozilla/5.0 (Macintosh; Intel Mac OS X 10_15_5) AppleWebKit/537.36 (KHTML, like Gecko) Chrome/91.0.4472.114 Safari/537.36",Macintosh,Chrome,91.0.4472.114,"OS X",10_15_5,5f461dd6c139dd6b46c7596cbd57cd79
189,1,"""","""","""","""","""",sampler,237,185402,0.0-6.0-231.0,"""","""","""","""","""","""","""","""","""","""","""","""","2021-08-09 16:17:29",45.20.98.54,"Mozilla/5.0 (Macintosh; Intel Mac OS X 10_15_5) AppleWebKit/537.36 (KHTML, like Gecko) Chrome/91.0.4472.114 Safari/537.36",Macintosh,Chrome,91.0.4472.114,"OS X",10_15_5,5f461dd6c139dd6b46c7596cbd57cd79
189,1,"""","""","""","""","""",sampler,238,185402,0.0-6.0-232.0,"""","""","""","""","""","""","""","""","""","""","""","""","2021-08-09 16:17:29",45.20.98.54,"Mozilla/5.0 (Macintosh; Intel Mac OS X 10_15_5) AppleWebKit/537.36 (KHTML, like Gecko) Chrome/91.0.4472.114 Safari/537.36",Macintosh,Chrome,91.0.4472.114,"OS X",10_15_5,5f461dd6c139dd6b46c7596cbd57cd79
189,1,"""","""","""","""","""",sampler,239,185402,0.0-6.0-233.0,"""","""","""","""","""","""","""","""","""","""","""","""","2021-08-09 16:17:29",45.20.98.54,"Mozilla/5.0 (Macintosh; Intel Mac OS X 10_15_5) AppleWebKit/537.36 (KHTML, like Gecko) Chrome/91.0.4472.114 Safari/537.36",Macintosh,Chrome,91.0.4472.114,"OS X",10_15_5,5f461dd6c139dd6b46c7596cbd57cd79
189,1,"""","""","""","""","""",sampler,240,185402,0.0-6.0-234.0,"""","""","""","""","""","""","""","""","""","""","""","""","2021-08-09 16:17:29",45.20.98.54,"Mozilla/5.0 (Macintosh; Intel Mac OS X 10_15_5) AppleWebKit/537.36 (KHTML, like Gecko) Chrome/91.0.4472.114 Safari/537.36",Macintosh,Chrome,91.0.4472.114,"OS X",10_15_5,5f461dd6c139dd6b46c7596cbd57cd79
189,1,"""","""","""","""","""",sampler,241,185402,0.0-6.0-235.0,"""","""","""","""","""","""","""","""","""","""","""","""","2021-08-09 16:17:29",45.20.98.54,"Mozilla/5.0 (Macintosh; Intel Mac OS X 10_15_5) AppleWebKit/537.36 (KHTML, like Gecko) Chrome/91.0.4472.114 Safari/537.36",Macintosh,Chrome,91.0.4472.114,"OS X",10_15_5,5f461dd6c139dd6b46c7596cbd57cd79
189,1,"""","""","""","""","""",sampler,242,185402,0.0-6.0-236.0,"""","""","""","""","""","""","""","""","""","""","""","""","2021-08-09 16:17:29",45.20.98.54,"Mozilla/5.0 (Macintosh; Intel Mac OS X 10_15_5) AppleWebKit/537.36 (KHTML, like Gecko) Chrome/91.0.4472.114 Safari/537.36",Macintosh,Chrome,91.0.4472.114,"OS X",10_15_5,5f461dd6c139dd6b46c7596cbd57cd79
189,1,"""","""","""","""","""",sampler,243,185402,0.0-6.0-237.0,"""","""","""","""","""","""","""","""","""","""","""","""","2021-08-09 16:17:29",45.20.98.54,"Mozilla/5.0 (Macintosh; Intel Mac OS X 10_15_5) AppleWebKit/537.36 (KHTML, like Gecko) Chrome/91.0.4472.114 Safari/537.36",Macintosh,Chrome,91.0.4472.114,"OS X",10_15_5,5f461dd6c139dd6b46c7596cbd57cd79
189,1,"""","""","""","""","""",sampler,244,185402,0.0-6.0-238.0,"""","""","""","""","""","""","""","""","""","""","""","""","2021-08-09 16:17:29",45.20.98.54,"Mozilla/5.0 (Macintosh; Intel Mac OS X 10_15_5) AppleWebKit/537.36 (KHTML, like Gecko) Chrome/91.0.4472.114 Safari/537.36",Macintosh,Chrome,91.0.4472.114,"OS X",10_15_5,5f461dd6c139dd6b46c7596cbd57cd79
189,1,"""","""","""","""","""",sampler,245,185402,0.0-6.0-239.0,"""","""","""","""","""","""","""","""","""","""","""","""","2021-08-09 16:17:29",45.20.98.54,"Mozilla/5.0 (Macintosh; Intel Mac OS X 10_15_5) AppleWebKit/537.36 (KHTML, like Gecko) Chrome/91.0.4472.114 Safari/537.36",Macintosh,Chrome,91.0.4472.114,"OS X",10_15_5,5f461dd6c139dd6b46c7596cbd57cd79
189,1,"""","""","""","""","""",sampler,246,185403,0.0-6.0-240.0,"""","""","""","""","""","""","""","""","""","""","""","""","2021-08-09 16:17:29",45.20.98.54,"Mozilla/5.0 (Macintosh; Intel Mac OS X 10_15_5) AppleWebKit/537.36 (KHTML, like Gecko) Chrome/91.0.4472.114 Safari/537.36",Macintosh,Chrome,91.0.4472.114,"OS X",10_15_5,5f461dd6c139dd6b46c7596cbd57cd79
189,1,"""","""","""","""","""",sampler,247,185403,0.0-6.0-241.0,"""","""","""","""","""","""","""","""","""","""","""","""","2021-08-09 16:17:29",45.20.98.54,"Mozilla/5.0 (Macintosh; Intel Mac OS X 10_15_5) AppleWebKit/537.36 (KHTML, like Gecko) Chrome/91.0.4472.114 Safari/537.36",Macintosh,Chrome,91.0.4472.114,"OS X",10_15_5,5f461dd6c139dd6b46c7596cbd57cd79
189,1,"""","""","""","""","""",sampler,248,185403,0.0-6.0-242.0,"""","""","""","""","""","""","""","""","""","""","""","""","2021-08-09 16:17:29",45.20.98.54,"Mozilla/5.0 (Macintosh; Intel Mac OS X 10_15_5) AppleWebKit/537.36 (KHTML, like Gecko) Chrome/91.0.4472.114 Safari/537.36",Macintosh,Chrome,91.0.4472.114,"OS X",10_15_5,5f461dd6c139dd6b46c7596cbd57cd79
189,1,"""","""","""","""","""",sampler,249,185403,0.0-6.0-243.0,"""","""","""","""","""","""","""","""","""","""","""","""","2021-08-09 16:17:29",45.20.98.54,"Mozilla/5.0 (Macintosh; Intel Mac OS X 10_15_5) AppleWebKit/537.36 (KHTML, like Gecko) Chrome/91.0.4472.114 Safari/537.36",Macintosh,Chrome,91.0.4472.114,"OS X",10_15_5,5f461dd6c139dd6b46c7596cbd57cd79
189,1,"""","""","""","""","""",sampler,250,185403,0.0-6.0-244.0,"""","""","""","""","""","""","""","""","""","""","""","""","2021-08-09 16:17:29",45.20.98.54,"Mozilla/5.0 (Macintosh; Intel Mac OS X 10_15_5) AppleWebKit/537.36 (KHTML, like Gecko) Chrome/91.0.4472.114 Safari/537.36",Macintosh,Chrome,91.0.4472.114,"OS X",10_15_5,5f461dd6c139dd6b46c7596cbd57cd79
189,1,"""","""","""","""","""",sampler,251,185403,0.0-6.0-245.0,"""","""","""","""","""","""","""","""","""","""","""","""","2021-08-09 16:17:29",45.20.98.54,"Mozilla/5.0 (Macintosh; Intel Mac OS X 10_15_5) AppleWebKit/537.36 (KHTML, like Gecko) Chrome/91.0.4472.114 Safari/537.36",Macintosh,Chrome,91.0.4472.114,"OS X",10_15_5,5f461dd6c139dd6b46c7596cbd57cd79
189,1,"""","""","""","""","""",sampler,252,185403,0.0-6.0-246.0,"""","""","""","""","""","""","""","""","""","""","""","""","2021-08-09 16:17:29",45.20.98.54,"Mozilla/5.0 (Macintosh; Intel Mac OS X 10_15_5) AppleWebKit/537.36 (KHTML, like Gecko) Chrome/91.0.4472.114 Safari/537.36",Macintosh,Chrome,91.0.4472.114,"OS X",10_15_5,5f461dd6c139dd6b46c7596cbd57cd79
189,1,"""","""","""","""","""",sampler,253,185403,0.0-6.0-247.0,"""","""","""","""","""","""","""","""","""","""","""","""","2021-08-09 16:17:29",45.20.98.54,"Mozilla/5.0 (Macintosh; Intel Mac OS X 10_15_5) AppleWebKit/537.36 (KHTML, like Gecko) Chrome/91.0.4472.114 Safari/537.36",Macintosh,Chrome,91.0.4472.114,"OS X",10_15_5,5f461dd6c139dd6b46c7596cbd57cd79
189,1,"""","""","""","""","""",sampler,254,185403,0.0-6.0-248.0,"""","""","""","""","""","""","""","""","""","""","""","""","2021-08-09 16:17:29",45.20.98.54,"Mozilla/5.0 (Macintosh; Intel Mac OS X 10_15_5) AppleWebKit/537.36 (KHTML, like Gecko) Chrome/91.0.4472.114 Safari/537.36",Macintosh,Chrome,91.0.4472.114,"OS X",10_15_5,5f461dd6c139dd6b46c7596cbd57cd79
189,1,"""","""","""","""","""",sampler,255,185404,0.0-6.0-249.0,"""","""","""","""","""","""","""","""","""","""","""","""","2021-08-09 16:17:29",45.20.98.54,"Mozilla/5.0 (Macintosh; Intel Mac OS X 10_15_5) AppleWebKit/537.36 (KHTML, like Gecko) Chrome/91.0.4472.114 Safari/537.36",Macintosh,Chrome,91.0.4472.114,"OS X",10_15_5,5f461dd6c139dd6b46c7596cbd57cd79
189,1,"""","""","""","""","""",sampler,256,185404,0.0-6.0-250.0,"""","""","""","""","""","""","""","""","""","""","""","""","2021-08-09 16:17:29",45.20.98.54,"Mozilla/5.0 (Macintosh; Intel Mac OS X 10_15_5) AppleWebKit/537.36 (KHTML, like Gecko) Chrome/91.0.4472.114 Safari/537.36",Macintosh,Chrome,91.0.4472.114,"OS X",10_15_5,5f461dd6c139dd6b46c7596cbd57cd79
189,1,"""","""","""","""","""",sampler,257,185404,0.0-6.0-251.0,"""","""","""","""","""","""","""","""","""","""","""","""","2021-08-09 16:17:29",45.20.98.54,"Mozilla/5.0 (Macintosh; Intel Mac OS X 10_15_5) AppleWebKit/537.36 (KHTML, like Gecko) Chrome/91.0.4472.114 Safari/537.36",Macintosh,Chrome,91.0.4472.114,"OS X",10_15_5,5f461dd6c139dd6b46c7596cbd57cd79
189,1,"""","""","""","""","""",sampler,258,185404,0.0-6.0-252.0,"""","""","""","""","""","""","""","""","""","""","""","""","2021-08-09 16:17:29",45.20.98.54,"Mozilla/5.0 (Macintosh; Intel Mac OS X 10_15_5) AppleWebKit/537.36 (KHTML, like Gecko) Chrome/91.0.4472.114 Safari/537.36",Macintosh,Chrome,91.0.4472.114,"OS X",10_15_5,5f461dd6c139dd6b46c7596cbd57cd79
189,1,"""","""","""","""","""",sampler,259,185404,0.0-6.0-253.0,"""","""","""","""","""","""","""","""","""","""","""","""","2021-08-09 16:17:29",45.20.98.54,"Mozilla/5.0 (Macintosh; Intel Mac OS X 10_15_5) AppleWebKit/537.36 (KHTML, like Gecko) Chrome/91.0.4472.114 Safari/537.36",Macintosh,Chrome,91.0.4472.114,"OS X",10_15_5,5f461dd6c139dd6b46c7596cbd57cd79
189,1,"""","""","""","""","""",sampler,260,185404,0.0-6.0-254.0,"""","""","""","""","""","""","""","""","""","""","""","""","2021-08-09 16:17:29",45.20.98.54,"Mozilla/5.0 (Macintosh; Intel Mac OS X 10_15_5) AppleWebKit/537.36 (KHTML, like Gecko) Chrome/91.0.4472.114 Safari/537.36",Macintosh,Chrome,91.0.4472.114,"OS X",10_15_5,5f461dd6c139dd6b46c7596cbd57cd79
189,1,"""","""","""","""","""",sampler,261,185404,0.0-6.0-255.0,"""","""","""","""","""","""","""","""","""","""","""","""","2021-08-09 16:17:29",45.20.98.54,"Mozilla/5.0 (Macintosh; Intel Mac OS X 10_15_5) AppleWebKit/537.36 (KHTML, like Gecko) Chrome/91.0.4472.114 Safari/537.36",Macintosh,Chrome,91.0.4472.114,"OS X",10_15_5,5f461dd6c139dd6b46c7596cbd57cd79
189,1,"""","""","""","""","""",sampler,262,185404,0.0-6.0-256.0,"""","""","""","""","""","""","""","""","""","""","""","""","2021-08-09 16:17:29",45.20.98.54,"Mozilla/5.0 (Macintosh; Intel Mac OS X 10_15_5) AppleWebKit/537.36 (KHTML, like Gecko) Chrome/91.0.4472.114 Safari/537.36",Macintosh,Chrome,91.0.4472.114,"OS X",10_15_5,5f461dd6c139dd6b46c7596cbd57cd79
189,1,"""","""","""","""","""",sampler,263,185404,0.0-6.0-257.0,"""","""","""","""","""","""","""","""","""","""","""","""","2021-08-09 16:17:29",45.20.98.54,"Mozilla/5.0 (Macintosh; Intel Mac OS X 10_15_5) AppleWebKit/537.36 (KHTML, like Gecko) Chrome/91.0.4472.114 Safari/537.36",Macintosh,Chrome,91.0.4472.114,"OS X",10_15_5,5f461dd6c139dd6b46c7596cbd57cd79
189,1,"""","""","""","""","""",sampler,264,185404,0.0-6.0-258.0,"""","""","""","""","""","""","""","""","""","""","""","""","2021-08-09 16:17:29",45.20.98.54,"Mozilla/5.0 (Macintosh; Intel Mac OS X 10_15_5) AppleWebKit/537.36 (KHTML, like Gecko) Chrome/91.0.4472.114 Safari/537.36",Macintosh,Chrome,91.0.4472.114,"OS X",10_15_5,5f461dd6c139dd6b46c7596cbd57cd79
189,1,"""","""","""","""","""",sampler,265,185405,0.0-6.0-259.0,"""","""","""","""","""","""","""","""","""","""","""","""","2021-08-09 16:17:29",45.20.98.54,"Mozilla/5.0 (Macintosh; Intel Mac OS X 10_15_5) AppleWebKit/537.36 (KHTML, like Gecko) Chrome/91.0.4472.114 Safari/537.36",Macintosh,Chrome,91.0.4472.114,"OS X",10_15_5,5f461dd6c139dd6b46c7596cbd57cd79
189,1,"""","""","""","""","""",sampler,266,185405,0.0-6.0-260.0,"""","""","""","""","""","""","""","""","""","""","""","""","2021-08-09 16:17:29",45.20.98.54,"Mozilla/5.0 (Macintosh; Intel Mac OS X 10_15_5) AppleWebKit/537.36 (KHTML, like Gecko) Chrome/91.0.4472.114 Safari/537.36",Macintosh,Chrome,91.0.4472.114,"OS X",10_15_5,5f461dd6c139dd6b46c7596cbd57cd79
189,1,"""","""","""","""","""",sampler,267,185405,0.0-6.0-261.0,"""","""","""","""","""","""","""","""","""","""","""","""","2021-08-09 16:17:29",45.20.98.54,"Mozilla/5.0 (Macintosh; Intel Mac OS X 10_15_5) AppleWebKit/537.36 (KHTML, like Gecko) Chrome/91.0.4472.114 Safari/537.36",Macintosh,Chrome,91.0.4472.114,"OS X",10_15_5,5f461dd6c139dd6b46c7596cbd57cd79
189,1,"""","""","""","""","""",sampler,268,185405,0.0-6.0-262.0,"""","""","""","""","""","""","""","""","""","""","""","""","2021-08-09 16:17:29",45.20.98.54,"Mozilla/5.0 (Macintosh; Intel Mac OS X 10_15_5) AppleWebKit/537.36 (KHTML, like Gecko) Chrome/91.0.4472.114 Safari/537.36",Macintosh,Chrome,91.0.4472.114,"OS X",10_15_5,5f461dd6c139dd6b46c7596cbd57cd79
189,1,"""","""","""","""","""",sampler,269,185405,0.0-6.0-263.0,"""","""","""","""","""","""","""","""","""","""","""","""","2021-08-09 16:17:29",45.20.98.54,"Mozilla/5.0 (Macintosh; Intel Mac OS X 10_15_5) AppleWebKit/537.36 (KHTML, like Gecko) Chrome/91.0.4472.114 Safari/537.36",Macintosh,Chrome,91.0.4472.114,"OS X",10_15_5,5f461dd6c139dd6b46c7596cbd57cd79
189,1,"""","""","""","""","""",sampler,270,185405,0.0-6.0-264.0,"""","""","""","""","""","""","""","""","""","""","""","""","2021-08-09 16:17:29",45.20.98.54,"Mozilla/5.0 (Macintosh; Intel Mac OS X 10_15_5) AppleWebKit/537.36 (KHTML, like Gecko) Chrome/91.0.4472.114 Safari/537.36",Macintosh,Chrome,91.0.4472.114,"OS X",10_15_5,5f461dd6c139dd6b46c7596cbd57cd79
189,1,"""","""","""","""","""",sampler,271,185405,0.0-6.0-265.0,"""","""","""","""","""","""","""","""","""","""","""","""","2021-08-09 16:17:29",45.20.98.54,"Mozilla/5.0 (Macintosh; Intel Mac OS X 10_15_5) AppleWebKit/537.36 (KHTML, like Gecko) Chrome/91.0.4472.114 Safari/537.36",Macintosh,Chrome,91.0.4472.114,"OS X",10_15_5,5f461dd6c139dd6b46c7596cbd57cd79
189,1,"""","""","""","""","""",sampler,272,185405,0.0-6.0-266.0,"""","""","""","""","""","""","""","""","""","""","""","""","2021-08-09 16:17:29",45.20.98.54,"Mozilla/5.0 (Macintosh; Intel Mac OS X 10_15_5) AppleWebKit/537.36 (KHTML, like Gecko) Chrome/91.0.4472.114 Safari/537.36",Macintosh,Chrome,91.0.4472.114,"OS X",10_15_5,5f461dd6c139dd6b46c7596cbd57cd79
