run_id,condition,success,timeout,failed_images,failed_audio,failed_video,trial_type,trial_index,time_elapsed,internal_node_id,rt,stimulus,key_press,responses,view_history,correct,image_click,points,sd,points2,total_earn,button_pressed,recorded_at,ip,user_agent,device,browser,browser_version,platform,platform_version,source_code_version
217,1,true,false,"""","""","""",preload,0,430,0.0-0.0,"""","""","""","""","""","""","""","""","""","""","""","""","2021-08-17 18:03:36",89.64.118.36,"Mozilla/5.0 (Windows NT 10.0; Win64; x64) AppleWebKit/537.36 (KHTML, like Gecko) Chrome/92.0.4515.159 Safari/537.36",WebKit,Chrome,92.0.4515.159,Windows,10.0,5f461dd6c139dd6b46c7596cbd57cd79
217,1,"""","""","""","""","""",html-keyboard-response,1,38796,0.0-1.0,38351,"<font size=15>Welcome to our experiment!</font><br><br><br><i> Press <b>space bar</b> to begin.</i>",32,"""","""","""","""","""","""","""","""","""","2021-08-17 18:03:36",89.64.118.36,"Mozilla/5.0 (Windows NT 10.0; Win64; x64) AppleWebKit/537.36 (KHTML, like Gecko) Chrome/92.0.4515.159 Safari/537.36",WebKit,Chrome,92.0.4515.159,Windows,10.0,5f461dd6c139dd6b46c7596cbd57cd79
217,1,"""","""","""","""","""",survey-multi-choice,2,49624,0.0-2.0,10818,"""","""","{""Q0"":""Yes"",""Q1"":""Yes"",""Q2"":""Yes"",""Q3"":""Yes""}","""","""","""","""","""","""","""","""","2021-08-17 18:03:36",89.64.118.36,"Mozilla/5.0 (Windows NT 10.0; Win64; x64) AppleWebKit/537.36 (KHTML, like Gecko) Chrome/92.0.4515.159 Safari/537.36",WebKit,Chrome,92.0.4515.159,Windows,10.0,5f461dd6c139dd6b46c7596cbd57cd79
217,1,"""","""","""","""","""",survey-html-form,3,60042,0.0-3.0,10391.5,"""","""","{""gender"":""female"",""age"":""21"",""hand"":""right"",""mail"":""5ec6d06c67b0da0fb6f85e83""}","""","""","""","""","""","""","""","""","2021-08-17 18:03:36",89.64.118.36,"Mozilla/5.0 (Windows NT 10.0; Win64; x64) AppleWebKit/537.36 (KHTML, like Gecko) Chrome/92.0.4515.159 Safari/537.36",WebKit,Chrome,92.0.4515.159,Windows,10.0,5f461dd6c139dd6b46c7596cbd57cd79
217,1,true,"""","""","""","""",fullscreen,4,66065,0.0-4.0,"""","""","""","""","""","""","""","""","""","""","""","""","2021-08-17 18:03:36",89.64.118.36,"Mozilla/5.0 (Windows NT 10.0; Win64; x64) AppleWebKit/537.36 (KHTML, like Gecko) Chrome/92.0.4515.159 Safari/537.36",WebKit,Chrome,92.0.4515.159,Windows,10.0,5f461dd6c139dd6b46c7596cbd57cd79
217,1,"""","""","""","""","""",multikey-instructions,5,185468,0.0-5.0,119397,"""","""","""","[{""page_index"":0,""viewing_time"":28500},{""page_index"":1,""viewing_time"":176},{""page_index"":0,""viewing_time"":544},{""page_index"":1,""viewing_time"":880},{""page_index"":0,""viewing_time"":320},{""page_index"":1,""viewing_time"":10433},{""page_index"":2,""viewing_time"":9319},{""page_index"":3,""viewing_time"":15649},{""page_index"":4,""viewing_time"":8831},{""page_index"":5,""viewing_time"":9409},{""page_index"":6,""viewing_time"":3519},{""page_index"":7,""viewing_time"":3992},{""page_index"":8,""viewing_time"":11592},{""page_index"":9,""viewing_time"":3529},{""page_index"":10,""viewing_time"":7336},{""page_index"":11,""viewing_time"":5368}]","""","""","""","""","""","""","""","2021-08-17 18:03:36",89.64.118.36,"Mozilla/5.0 (Windows NT 10.0; Win64; x64) AppleWebKit/537.36 (KHTML, like Gecko) Chrome/92.0.4515.159 Safari/537.36",WebKit,Chrome,92.0.4515.159,Windows,10.0,5f461dd6c139dd6b46c7596cbd57cd79
217,1,"""","""","""","""","""",sampler,6,192126,0.0-6.0-0.0,6249,img/Cobalt.png,"""","""","""",false,-1,6.947403619358639,5,"""","""","""","2021-08-17 18:03:36",89.64.118.36,"Mozilla/5.0 (Windows NT 10.0; Win64; x64) AppleWebKit/537.36 (KHTML, like Gecko) Chrome/92.0.4515.159 Safari/537.36",WebKit,Chrome,92.0.4515.159,Windows,10.0,5f461dd6c139dd6b46c7596cbd57cd79
217,1,"""","""","""","""","""",sampler,7,193125,0.0-6.0-1.0,581,img/Cobalt.png,"""","""","""",false,-1,6.957302743987938,5,"""","""","""","2021-08-17 18:03:36",89.64.118.36,"Mozilla/5.0 (Windows NT 10.0; Win64; x64) AppleWebKit/537.36 (KHTML, like Gecko) Chrome/92.0.4515.159 Safari/537.36",WebKit,Chrome,92.0.4515.159,Windows,10.0,5f461dd6c139dd6b46c7596cbd57cd79
217,1,"""","""","""","""","""",sampler,8,194061,0.0-6.0-2.0,524,img/Cobalt.png,"""","""","""",false,-1,1.035265715605036,5,"""","""","""","2021-08-17 18:03:36",89.64.118.36,"Mozilla/5.0 (Windows NT 10.0; Win64; x64) AppleWebKit/537.36 (KHTML, like Gecko) Chrome/92.0.4515.159 Safari/537.36",WebKit,Chrome,92.0.4515.159,Windows,10.0,5f461dd6c139dd6b46c7596cbd57cd79
217,1,"""","""","""","""","""",sampler,9,194907,0.0-6.0-3.0,426,img/Cobalt.png,"""","""","""",false,-1,2.932011296387154,5,"""","""","""","2021-08-17 18:03:36",89.64.118.36,"Mozilla/5.0 (Windows NT 10.0; Win64; x64) AppleWebKit/537.36 (KHTML, like Gecko) Chrome/92.0.4515.159 Safari/537.36",WebKit,Chrome,92.0.4515.159,Windows,10.0,5f461dd6c139dd6b46c7596cbd57cd79
217,1,"""","""","""","""","""",sampler,10,197802,0.0-6.0-4.0,2478,img/Cobalt.png,"""","""","""",false,-1,-7.732960445170388,5,"""","""","""","2021-08-17 18:03:36",89.64.118.36,"Mozilla/5.0 (Windows NT 10.0; Win64; x64) AppleWebKit/537.36 (KHTML, like Gecko) Chrome/92.0.4515.159 Safari/537.36",WebKit,Chrome,92.0.4515.159,Windows,10.0,5f461dd6c139dd6b46c7596cbd57cd79
217,1,"""","""","""","""","""",sampler,11,197807,0.0-6.0-5.0,"""","""","""","""","""","""","""","""","""","""","""","""","2021-08-17 18:03:36",89.64.118.36,"Mozilla/5.0 (Windows NT 10.0; Win64; x64) AppleWebKit/537.36 (KHTML, like Gecko) Chrome/92.0.4515.159 Safari/537.36",WebKit,Chrome,92.0.4515.159,Windows,10.0,5f461dd6c139dd6b46c7596cbd57cd79
217,1,"""","""","""","""","""",sampler,12,197807,0.0-6.0-6.0,"""","""","""","""","""","""","""","""","""","""","""","""","2021-08-17 18:03:36",89.64.118.36,"Mozilla/5.0 (Windows NT 10.0; Win64; x64) AppleWebKit/537.36 (KHTML, like Gecko) Chrome/92.0.4515.159 Safari/537.36",WebKit,Chrome,92.0.4515.159,Windows,10.0,5f461dd6c139dd6b46c7596cbd57cd79
217,1,"""","""","""","""","""",sampler,13,197808,0.0-6.0-7.0,"""","""","""","""","""","""","""","""","""","""","""","""","2021-08-17 18:03:36",89.64.118.36,"Mozilla/5.0 (Windows NT 10.0; Win64; x64) AppleWebKit/537.36 (KHTML, like Gecko) Chrome/92.0.4515.159 Safari/537.36",WebKit,Chrome,92.0.4515.159,Windows,10.0,5f461dd6c139dd6b46c7596cbd57cd79
217,1,"""","""","""","""","""",sampler,14,197809,0.0-6.0-8.0,"""","""","""","""","""","""","""","""","""","""","""","""","2021-08-17 18:03:36",89.64.118.36,"Mozilla/5.0 (Windows NT 10.0; Win64; x64) AppleWebKit/537.36 (KHTML, like Gecko) Chrome/92.0.4515.159 Safari/537.36",WebKit,Chrome,92.0.4515.159,Windows,10.0,5f461dd6c139dd6b46c7596cbd57cd79
217,1,"""","""","""","""","""",sampler,15,197809,0.0-6.0-9.0,"""","""","""","""","""","""","""","""","""","""","""","""","2021-08-17 18:03:36",89.64.118.36,"Mozilla/5.0 (Windows NT 10.0; Win64; x64) AppleWebKit/537.36 (KHTML, like Gecko) Chrome/92.0.4515.159 Safari/537.36",WebKit,Chrome,92.0.4515.159,Windows,10.0,5f461dd6c139dd6b46c7596cbd57cd79
217,1,"""","""","""","""","""",sampler,16,197810,0.0-6.0-10.0,"""","""","""","""","""","""","""","""","""","""","""","""","2021-08-17 18:03:36",89.64.118.36,"Mozilla/5.0 (Windows NT 10.0; Win64; x64) AppleWebKit/537.36 (KHTML, like Gecko) Chrome/92.0.4515.159 Safari/537.36",WebKit,Chrome,92.0.4515.159,Windows,10.0,5f461dd6c139dd6b46c7596cbd57cd79
217,1,"""","""","""","""","""",sampler,17,197810,0.0-6.0-11.0,"""","""","""","""","""","""","""","""","""","""","""","""","2021-08-17 18:03:36",89.64.118.36,"Mozilla/5.0 (Windows NT 10.0; Win64; x64) AppleWebKit/537.36 (KHTML, like Gecko) Chrome/92.0.4515.159 Safari/537.36",WebKit,Chrome,92.0.4515.159,Windows,10.0,5f461dd6c139dd6b46c7596cbd57cd79
217,1,"""","""","""","""","""",sampler,18,197810,0.0-6.0-12.0,"""","""","""","""","""","""","""","""","""","""","""","""","2021-08-17 18:03:36",89.64.118.36,"Mozilla/5.0 (Windows NT 10.0; Win64; x64) AppleWebKit/537.36 (KHTML, like Gecko) Chrome/92.0.4515.159 Safari/537.36",WebKit,Chrome,92.0.4515.159,Windows,10.0,5f461dd6c139dd6b46c7596cbd57cd79
217,1,"""","""","""","""","""",sampler,19,197811,0.0-6.0-13.0,"""","""","""","""","""","""","""","""","""","""","""","""","2021-08-17 18:03:36",89.64.118.36,"Mozilla/5.0 (Windows NT 10.0; Win64; x64) AppleWebKit/537.36 (KHTML, like Gecko) Chrome/92.0.4515.159 Safari/537.36",WebKit,Chrome,92.0.4515.159,Windows,10.0,5f461dd6c139dd6b46c7596cbd57cd79
217,1,"""","""","""","""","""",sampler,20,197811,0.0-6.0-14.0,"""","""","""","""","""","""","""","""","""","""","""","""","2021-08-17 18:03:36",89.64.118.36,"Mozilla/5.0 (Windows NT 10.0; Win64; x64) AppleWebKit/537.36 (KHTML, like Gecko) Chrome/92.0.4515.159 Safari/537.36",WebKit,Chrome,92.0.4515.159,Windows,10.0,5f461dd6c139dd6b46c7596cbd57cd79
217,1,"""","""","""","""","""",sampler,21,197812,0.0-6.0-15.0,"""","""","""","""","""","""","""","""","""","""","""","""","2021-08-17 18:03:36",89.64.118.36,"Mozilla/5.0 (Windows NT 10.0; Win64; x64) AppleWebKit/537.36 (KHTML, like Gecko) Chrome/92.0.4515.159 Safari/537.36",WebKit,Chrome,92.0.4515.159,Windows,10.0,5f461dd6c139dd6b46c7596cbd57cd79
217,1,"""","""","""","""","""",sampler,22,197812,0.0-6.0-16.0,"""","""","""","""","""","""","""","""","""","""","""","""","2021-08-17 18:03:36",89.64.118.36,"Mozilla/5.0 (Windows NT 10.0; Win64; x64) AppleWebKit/537.36 (KHTML, like Gecko) Chrome/92.0.4515.159 Safari/537.36",WebKit,Chrome,92.0.4515.159,Windows,10.0,5f461dd6c139dd6b46c7596cbd57cd79
217,1,"""","""","""","""","""",sampler,23,197812,0.0-6.0-17.0,"""","""","""","""","""","""","""","""","""","""","""","""","2021-08-17 18:03:36",89.64.118.36,"Mozilla/5.0 (Windows NT 10.0; Win64; x64) AppleWebKit/537.36 (KHTML, like Gecko) Chrome/92.0.4515.159 Safari/537.36",WebKit,Chrome,92.0.4515.159,Windows,10.0,5f461dd6c139dd6b46c7596cbd57cd79
217,1,"""","""","""","""","""",sampler,24,197813,0.0-6.0-18.0,"""","""","""","""","""","""","""","""","""","""","""","""","2021-08-17 18:03:36",89.64.118.36,"Mozilla/5.0 (Windows NT 10.0; Win64; x64) AppleWebKit/537.36 (KHTML, like Gecko) Chrome/92.0.4515.159 Safari/537.36",WebKit,Chrome,92.0.4515.159,Windows,10.0,5f461dd6c139dd6b46c7596cbd57cd79
217,1,"""","""","""","""","""",sampler,25,197813,0.0-6.0-19.0,"""","""","""","""","""","""","""","""","""","""","""","""","2021-08-17 18:03:36",89.64.118.36,"Mozilla/5.0 (Windows NT 10.0; Win64; x64) AppleWebKit/537.36 (KHTML, like Gecko) Chrome/92.0.4515.159 Safari/537.36",WebKit,Chrome,92.0.4515.159,Windows,10.0,5f461dd6c139dd6b46c7596cbd57cd79
217,1,"""","""","""","""","""",sampler,26,197814,0.0-6.0-20.0,"""","""","""","""","""","""","""","""","""","""","""","""","2021-08-17 18:03:36",89.64.118.36,"Mozilla/5.0 (Windows NT 10.0; Win64; x64) AppleWebKit/537.36 (KHTML, like Gecko) Chrome/92.0.4515.159 Safari/537.36",WebKit,Chrome,92.0.4515.159,Windows,10.0,5f461dd6c139dd6b46c7596cbd57cd79
217,1,"""","""","""","""","""",sampler,27,197814,0.0-6.0-21.0,"""","""","""","""","""","""","""","""","""","""","""","""","2021-08-17 18:03:36",89.64.118.36,"Mozilla/5.0 (Windows NT 10.0; Win64; x64) AppleWebKit/537.36 (KHTML, like Gecko) Chrome/92.0.4515.159 Safari/537.36",WebKit,Chrome,92.0.4515.159,Windows,10.0,5f461dd6c139dd6b46c7596cbd57cd79
217,1,"""","""","""","""","""",sampler,28,197815,0.0-6.0-22.0,"""","""","""","""","""","""","""","""","""","""","""","""","2021-08-17 18:03:36",89.64.118.36,"Mozilla/5.0 (Windows NT 10.0; Win64; x64) AppleWebKit/537.36 (KHTML, like Gecko) Chrome/92.0.4515.159 Safari/537.36",WebKit,Chrome,92.0.4515.159,Windows,10.0,5f461dd6c139dd6b46c7596cbd57cd79
217,1,"""","""","""","""","""",sampler,29,197815,0.0-6.0-23.0,"""","""","""","""","""","""","""","""","""","""","""","""","2021-08-17 18:03:36",89.64.118.36,"Mozilla/5.0 (Windows NT 10.0; Win64; x64) AppleWebKit/537.36 (KHTML, like Gecko) Chrome/92.0.4515.159 Safari/537.36",WebKit,Chrome,92.0.4515.159,Windows,10.0,5f461dd6c139dd6b46c7596cbd57cd79
217,1,"""","""","""","""","""",sampler,30,197815,0.0-6.0-24.0,"""","""","""","""","""","""","""","""","""","""","""","""","2021-08-17 18:03:36",89.64.118.36,"Mozilla/5.0 (Windows NT 10.0; Win64; x64) AppleWebKit/537.36 (KHTML, like Gecko) Chrome/92.0.4515.159 Safari/537.36",WebKit,Chrome,92.0.4515.159,Windows,10.0,5f461dd6c139dd6b46c7596cbd57cd79
217,1,"""","""","""","""","""",sampler,31,197816,0.0-6.0-25.0,"""","""","""","""","""","""","""","""","""","""","""","""","2021-08-17 18:03:36",89.64.118.36,"Mozilla/5.0 (Windows NT 10.0; Win64; x64) AppleWebKit/537.36 (KHTML, like Gecko) Chrome/92.0.4515.159 Safari/537.36",WebKit,Chrome,92.0.4515.159,Windows,10.0,5f461dd6c139dd6b46c7596cbd57cd79
217,1,"""","""","""","""","""",sampler,32,197816,0.0-6.0-26.0,"""","""","""","""","""","""","""","""","""","""","""","""","2021-08-17 18:03:36",89.64.118.36,"Mozilla/5.0 (Windows NT 10.0; Win64; x64) AppleWebKit/537.36 (KHTML, like Gecko) Chrome/92.0.4515.159 Safari/537.36",WebKit,Chrome,92.0.4515.159,Windows,10.0,5f461dd6c139dd6b46c7596cbd57cd79
217,1,"""","""","""","""","""",sampler,33,197817,0.0-6.0-27.0,"""","""","""","""","""","""","""","""","""","""","""","""","2021-08-17 18:03:36",89.64.118.36,"Mozilla/5.0 (Windows NT 10.0; Win64; x64) AppleWebKit/537.36 (KHTML, like Gecko) Chrome/92.0.4515.159 Safari/537.36",WebKit,Chrome,92.0.4515.159,Windows,10.0,5f461dd6c139dd6b46c7596cbd57cd79
217,1,"""","""","""","""","""",sampler,34,197817,0.0-6.0-28.0,"""","""","""","""","""","""","""","""","""","""","""","""","2021-08-17 18:03:36",89.64.118.36,"Mozilla/5.0 (Windows NT 10.0; Win64; x64) AppleWebKit/537.36 (KHTML, like Gecko) Chrome/92.0.4515.159 Safari/537.36",WebKit,Chrome,92.0.4515.159,Windows,10.0,5f461dd6c139dd6b46c7596cbd57cd79
217,1,"""","""","""","""","""",sampler,35,197817,0.0-6.0-29.0,"""","""","""","""","""","""","""","""","""","""","""","""","2021-08-17 18:03:36",89.64.118.36,"Mozilla/5.0 (Windows NT 10.0; Win64; x64) AppleWebKit/537.36 (KHTML, like Gecko) Chrome/92.0.4515.159 Safari/537.36",WebKit,Chrome,92.0.4515.159,Windows,10.0,5f461dd6c139dd6b46c7596cbd57cd79
217,1,"""","""","""","""","""",sampler,36,197818,0.0-6.0-30.0,"""","""","""","""","""","""","""","""","""","""","""","""","2021-08-17 18:03:36",89.64.118.36,"Mozilla/5.0 (Windows NT 10.0; Win64; x64) AppleWebKit/537.36 (KHTML, like Gecko) Chrome/92.0.4515.159 Safari/537.36",WebKit,Chrome,92.0.4515.159,Windows,10.0,5f461dd6c139dd6b46c7596cbd57cd79
217,1,"""","""","""","""","""",sampler,37,197818,0.0-6.0-31.0,"""","""","""","""","""","""","""","""","""","""","""","""","2021-08-17 18:03:36",89.64.118.36,"Mozilla/5.0 (Windows NT 10.0; Win64; x64) AppleWebKit/537.36 (KHTML, like Gecko) Chrome/92.0.4515.159 Safari/537.36",WebKit,Chrome,92.0.4515.159,Windows,10.0,5f461dd6c139dd6b46c7596cbd57cd79
217,1,"""","""","""","""","""",sampler,38,197819,0.0-6.0-32.0,"""","""","""","""","""","""","""","""","""","""","""","""","2021-08-17 18:03:36",89.64.118.36,"Mozilla/5.0 (Windows NT 10.0; Win64; x64) AppleWebKit/537.36 (KHTML, like Gecko) Chrome/92.0.4515.159 Safari/537.36",WebKit,Chrome,92.0.4515.159,Windows,10.0,5f461dd6c139dd6b46c7596cbd57cd79
217,1,"""","""","""","""","""",sampler,39,197819,0.0-6.0-33.0,"""","""","""","""","""","""","""","""","""","""","""","""","2021-08-17 18:03:36",89.64.118.36,"Mozilla/5.0 (Windows NT 10.0; Win64; x64) AppleWebKit/537.36 (KHTML, like Gecko) Chrome/92.0.4515.159 Safari/537.36",WebKit,Chrome,92.0.4515.159,Windows,10.0,5f461dd6c139dd6b46c7596cbd57cd79
217,1,"""","""","""","""","""",sampler,40,197819,0.0-6.0-34.0,"""","""","""","""","""","""","""","""","""","""","""","""","2021-08-17 18:03:36",89.64.118.36,"Mozilla/5.0 (Windows NT 10.0; Win64; x64) AppleWebKit/537.36 (KHTML, like Gecko) Chrome/92.0.4515.159 Safari/537.36",WebKit,Chrome,92.0.4515.159,Windows,10.0,5f461dd6c139dd6b46c7596cbd57cd79
217,1,"""","""","""","""","""",sampler,41,197820,0.0-6.0-35.0,"""","""","""","""","""","""","""","""","""","""","""","""","2021-08-17 18:03:36",89.64.118.36,"Mozilla/5.0 (Windows NT 10.0; Win64; x64) AppleWebKit/537.36 (KHTML, like Gecko) Chrome/92.0.4515.159 Safari/537.36",WebKit,Chrome,92.0.4515.159,Windows,10.0,5f461dd6c139dd6b46c7596cbd57cd79
217,1,"""","""","""","""","""",sampler,42,197820,0.0-6.0-36.0,"""","""","""","""","""","""","""","""","""","""","""","""","2021-08-17 18:03:36",89.64.118.36,"Mozilla/5.0 (Windows NT 10.0; Win64; x64) AppleWebKit/537.36 (KHTML, like Gecko) Chrome/92.0.4515.159 Safari/537.36",WebKit,Chrome,92.0.4515.159,Windows,10.0,5f461dd6c139dd6b46c7596cbd57cd79
217,1,"""","""","""","""","""",sampler,43,197821,0.0-6.0-37.0,"""","""","""","""","""","""","""","""","""","""","""","""","2021-08-17 18:03:36",89.64.118.36,"Mozilla/5.0 (Windows NT 10.0; Win64; x64) AppleWebKit/537.36 (KHTML, like Gecko) Chrome/92.0.4515.159 Safari/537.36",WebKit,Chrome,92.0.4515.159,Windows,10.0,5f461dd6c139dd6b46c7596cbd57cd79
217,1,"""","""","""","""","""",sampler,44,197821,0.0-6.0-38.0,"""","""","""","""","""","""","""","""","""","""","""","""","2021-08-17 18:03:36",89.64.118.36,"Mozilla/5.0 (Windows NT 10.0; Win64; x64) AppleWebKit/537.36 (KHTML, like Gecko) Chrome/92.0.4515.159 Safari/537.36",WebKit,Chrome,92.0.4515.159,Windows,10.0,5f461dd6c139dd6b46c7596cbd57cd79
217,1,"""","""","""","""","""",sampler,45,197821,0.0-6.0-39.0,"""","""","""","""","""","""","""","""","""","""","""","""","2021-08-17 18:03:36",89.64.118.36,"Mozilla/5.0 (Windows NT 10.0; Win64; x64) AppleWebKit/537.36 (KHTML, like Gecko) Chrome/92.0.4515.159 Safari/537.36",WebKit,Chrome,92.0.4515.159,Windows,10.0,5f461dd6c139dd6b46c7596cbd57cd79
217,1,"""","""","""","""","""",sampler,46,197822,0.0-6.0-40.0,"""","""","""","""","""","""","""","""","""","""","""","""","2021-08-17 18:03:36",89.64.118.36,"Mozilla/5.0 (Windows NT 10.0; Win64; x64) AppleWebKit/537.36 (KHTML, like Gecko) Chrome/92.0.4515.159 Safari/537.36",WebKit,Chrome,92.0.4515.159,Windows,10.0,5f461dd6c139dd6b46c7596cbd57cd79
217,1,"""","""","""","""","""",sampler,47,197822,0.0-6.0-41.0,"""","""","""","""","""","""","""","""","""","""","""","""","2021-08-17 18:03:36",89.64.118.36,"Mozilla/5.0 (Windows NT 10.0; Win64; x64) AppleWebKit/537.36 (KHTML, like Gecko) Chrome/92.0.4515.159 Safari/537.36",WebKit,Chrome,92.0.4515.159,Windows,10.0,5f461dd6c139dd6b46c7596cbd57cd79
217,1,"""","""","""","""","""",sampler,48,197823,0.0-6.0-42.0,"""","""","""","""","""","""","""","""","""","""","""","""","2021-08-17 18:03:36",89.64.118.36,"Mozilla/5.0 (Windows NT 10.0; Win64; x64) AppleWebKit/537.36 (KHTML, like Gecko) Chrome/92.0.4515.159 Safari/537.36",WebKit,Chrome,92.0.4515.159,Windows,10.0,5f461dd6c139dd6b46c7596cbd57cd79
217,1,"""","""","""","""","""",sampler,49,197823,0.0-6.0-43.0,"""","""","""","""","""","""","""","""","""","""","""","""","2021-08-17 18:03:36",89.64.118.36,"Mozilla/5.0 (Windows NT 10.0; Win64; x64) AppleWebKit/537.36 (KHTML, like Gecko) Chrome/92.0.4515.159 Safari/537.36",WebKit,Chrome,92.0.4515.159,Windows,10.0,5f461dd6c139dd6b46c7596cbd57cd79
217,1,"""","""","""","""","""",sampler,50,197823,0.0-6.0-44.0,"""","""","""","""","""","""","""","""","""","""","""","""","2021-08-17 18:03:36",89.64.118.36,"Mozilla/5.0 (Windows NT 10.0; Win64; x64) AppleWebKit/537.36 (KHTML, like Gecko) Chrome/92.0.4515.159 Safari/537.36",WebKit,Chrome,92.0.4515.159,Windows,10.0,5f461dd6c139dd6b46c7596cbd57cd79
217,1,"""","""","""","""","""",sampler,51,197824,0.0-6.0-45.0,"""","""","""","""","""","""","""","""","""","""","""","""","2021-08-17 18:03:36",89.64.118.36,"Mozilla/5.0 (Windows NT 10.0; Win64; x64) AppleWebKit/537.36 (KHTML, like Gecko) Chrome/92.0.4515.159 Safari/537.36",WebKit,Chrome,92.0.4515.159,Windows,10.0,5f461dd6c139dd6b46c7596cbd57cd79
217,1,"""","""","""","""","""",sampler,52,197824,0.0-6.0-46.0,"""","""","""","""","""","""","""","""","""","""","""","""","2021-08-17 18:03:36",89.64.118.36,"Mozilla/5.0 (Windows NT 10.0; Win64; x64) AppleWebKit/537.36 (KHTML, like Gecko) Chrome/92.0.4515.159 Safari/537.36",WebKit,Chrome,92.0.4515.159,Windows,10.0,5f461dd6c139dd6b46c7596cbd57cd79
217,1,"""","""","""","""","""",sampler,53,197825,0.0-6.0-47.0,"""","""","""","""","""","""","""","""","""","""","""","""","2021-08-17 18:03:36",89.64.118.36,"Mozilla/5.0 (Windows NT 10.0; Win64; x64) AppleWebKit/537.36 (KHTML, like Gecko) Chrome/92.0.4515.159 Safari/537.36",WebKit,Chrome,92.0.4515.159,Windows,10.0,5f461dd6c139dd6b46c7596cbd57cd79
217,1,"""","""","""","""","""",sampler,54,197825,0.0-6.0-48.0,"""","""","""","""","""","""","""","""","""","""","""","""","2021-08-17 18:03:36",89.64.118.36,"Mozilla/5.0 (Windows NT 10.0; Win64; x64) AppleWebKit/537.36 (KHTML, like Gecko) Chrome/92.0.4515.159 Safari/537.36",WebKit,Chrome,92.0.4515.159,Windows,10.0,5f461dd6c139dd6b46c7596cbd57cd79
217,1,"""","""","""","""","""",sampler,55,197825,0.0-6.0-49.0,"""","""","""","""","""","""","""","""","""","""","""","""","2021-08-17 18:03:36",89.64.118.36,"Mozilla/5.0 (Windows NT 10.0; Win64; x64) AppleWebKit/537.36 (KHTML, like Gecko) Chrome/92.0.4515.159 Safari/537.36",WebKit,Chrome,92.0.4515.159,Windows,10.0,5f461dd6c139dd6b46c7596cbd57cd79
217,1,"""","""","""","""","""",sampler,56,197826,0.0-6.0-50.0,"""","""","""","""","""","""","""","""","""","""","""","""","2021-08-17 18:03:36",89.64.118.36,"Mozilla/5.0 (Windows NT 10.0; Win64; x64) AppleWebKit/537.36 (KHTML, like Gecko) Chrome/92.0.4515.159 Safari/537.36",WebKit,Chrome,92.0.4515.159,Windows,10.0,5f461dd6c139dd6b46c7596cbd57cd79
217,1,"""","""","""","""","""",sampler,57,197826,0.0-6.0-51.0,"""","""","""","""","""","""","""","""","""","""","""","""","2021-08-17 18:03:36",89.64.118.36,"Mozilla/5.0 (Windows NT 10.0; Win64; x64) AppleWebKit/537.36 (KHTML, like Gecko) Chrome/92.0.4515.159 Safari/537.36",WebKit,Chrome,92.0.4515.159,Windows,10.0,5f461dd6c139dd6b46c7596cbd57cd79
217,1,"""","""","""","""","""",sampler,58,197827,0.0-6.0-52.0,"""","""","""","""","""","""","""","""","""","""","""","""","2021-08-17 18:03:36",89.64.118.36,"Mozilla/5.0 (Windows NT 10.0; Win64; x64) AppleWebKit/537.36 (KHTML, like Gecko) Chrome/92.0.4515.159 Safari/537.36",WebKit,Chrome,92.0.4515.159,Windows,10.0,5f461dd6c139dd6b46c7596cbd57cd79
217,1,"""","""","""","""","""",sampler,59,197827,0.0-6.0-53.0,"""","""","""","""","""","""","""","""","""","""","""","""","2021-08-17 18:03:36",89.64.118.36,"Mozilla/5.0 (Windows NT 10.0; Win64; x64) AppleWebKit/537.36 (KHTML, like Gecko) Chrome/92.0.4515.159 Safari/537.36",WebKit,Chrome,92.0.4515.159,Windows,10.0,5f461dd6c139dd6b46c7596cbd57cd79
217,1,"""","""","""","""","""",sampler,60,197827,0.0-6.0-54.0,"""","""","""","""","""","""","""","""","""","""","""","""","2021-08-17 18:03:36",89.64.118.36,"Mozilla/5.0 (Windows NT 10.0; Win64; x64) AppleWebKit/537.36 (KHTML, like Gecko) Chrome/92.0.4515.159 Safari/537.36",WebKit,Chrome,92.0.4515.159,Windows,10.0,5f461dd6c139dd6b46c7596cbd57cd79
217,1,"""","""","""","""","""",sampler,61,197828,0.0-6.0-55.0,"""","""","""","""","""","""","""","""","""","""","""","""","2021-08-17 18:03:36",89.64.118.36,"Mozilla/5.0 (Windows NT 10.0; Win64; x64) AppleWebKit/537.36 (KHTML, like Gecko) Chrome/92.0.4515.159 Safari/537.36",WebKit,Chrome,92.0.4515.159,Windows,10.0,5f461dd6c139dd6b46c7596cbd57cd79
217,1,"""","""","""","""","""",sampler,62,197828,0.0-6.0-56.0,"""","""","""","""","""","""","""","""","""","""","""","""","2021-08-17 18:03:36",89.64.118.36,"Mozilla/5.0 (Windows NT 10.0; Win64; x64) AppleWebKit/537.36 (KHTML, like Gecko) Chrome/92.0.4515.159 Safari/537.36",WebKit,Chrome,92.0.4515.159,Windows,10.0,5f461dd6c139dd6b46c7596cbd57cd79
217,1,"""","""","""","""","""",sampler,63,197829,0.0-6.0-57.0,"""","""","""","""","""","""","""","""","""","""","""","""","2021-08-17 18:03:36",89.64.118.36,"Mozilla/5.0 (Windows NT 10.0; Win64; x64) AppleWebKit/537.36 (KHTML, like Gecko) Chrome/92.0.4515.159 Safari/537.36",WebKit,Chrome,92.0.4515.159,Windows,10.0,5f461dd6c139dd6b46c7596cbd57cd79
217,1,"""","""","""","""","""",sampler,64,197829,0.0-6.0-58.0,"""","""","""","""","""","""","""","""","""","""","""","""","2021-08-17 18:03:36",89.64.118.36,"Mozilla/5.0 (Windows NT 10.0; Win64; x64) AppleWebKit/537.36 (KHTML, like Gecko) Chrome/92.0.4515.159 Safari/537.36",WebKit,Chrome,92.0.4515.159,Windows,10.0,5f461dd6c139dd6b46c7596cbd57cd79
217,1,"""","""","""","""","""",sampler,65,197830,0.0-6.0-59.0,"""","""","""","""","""","""","""","""","""","""","""","""","2021-08-17 18:03:36",89.64.118.36,"Mozilla/5.0 (Windows NT 10.0; Win64; x64) AppleWebKit/537.36 (KHTML, like Gecko) Chrome/92.0.4515.159 Safari/537.36",WebKit,Chrome,92.0.4515.159,Windows,10.0,5f461dd6c139dd6b46c7596cbd57cd79
217,1,"""","""","""","""","""",sampler,66,197830,0.0-6.0-60.0,"""","""","""","""","""","""","""","""","""","""","""","""","2021-08-17 18:03:36",89.64.118.36,"Mozilla/5.0 (Windows NT 10.0; Win64; x64) AppleWebKit/537.36 (KHTML, like Gecko) Chrome/92.0.4515.159 Safari/537.36",WebKit,Chrome,92.0.4515.159,Windows,10.0,5f461dd6c139dd6b46c7596cbd57cd79
217,1,"""","""","""","""","""",sampler,67,197830,0.0-6.0-61.0,"""","""","""","""","""","""","""","""","""","""","""","""","2021-08-17 18:03:36",89.64.118.36,"Mozilla/5.0 (Windows NT 10.0; Win64; x64) AppleWebKit/537.36 (KHTML, like Gecko) Chrome/92.0.4515.159 Safari/537.36",WebKit,Chrome,92.0.4515.159,Windows,10.0,5f461dd6c139dd6b46c7596cbd57cd79
217,1,"""","""","""","""","""",sampler,68,197831,0.0-6.0-62.0,"""","""","""","""","""","""","""","""","""","""","""","""","2021-08-17 18:03:36",89.64.118.36,"Mozilla/5.0 (Windows NT 10.0; Win64; x64) AppleWebKit/537.36 (KHTML, like Gecko) Chrome/92.0.4515.159 Safari/537.36",WebKit,Chrome,92.0.4515.159,Windows,10.0,5f461dd6c139dd6b46c7596cbd57cd79
217,1,"""","""","""","""","""",sampler,69,197831,0.0-6.0-63.0,"""","""","""","""","""","""","""","""","""","""","""","""","2021-08-17 18:03:36",89.64.118.36,"Mozilla/5.0 (Windows NT 10.0; Win64; x64) AppleWebKit/537.36 (KHTML, like Gecko) Chrome/92.0.4515.159 Safari/537.36",WebKit,Chrome,92.0.4515.159,Windows,10.0,5f461dd6c139dd6b46c7596cbd57cd79
217,1,"""","""","""","""","""",sampler,70,197836,0.0-6.0-64.0,"""","""","""","""","""","""","""","""","""","""","""","""","2021-08-17 18:03:36",89.64.118.36,"Mozilla/5.0 (Windows NT 10.0; Win64; x64) AppleWebKit/537.36 (KHTML, like Gecko) Chrome/92.0.4515.159 Safari/537.36",WebKit,Chrome,92.0.4515.159,Windows,10.0,5f461dd6c139dd6b46c7596cbd57cd79
217,1,"""","""","""","""","""",sampler,71,197836,0.0-6.0-65.0,"""","""","""","""","""","""","""","""","""","""","""","""","2021-08-17 18:03:36",89.64.118.36,"Mozilla/5.0 (Windows NT 10.0; Win64; x64) AppleWebKit/537.36 (KHTML, like Gecko) Chrome/92.0.4515.159 Safari/537.36",WebKit,Chrome,92.0.4515.159,Windows,10.0,5f461dd6c139dd6b46c7596cbd57cd79
217,1,"""","""","""","""","""",sampler,72,197837,0.0-6.0-66.0,"""","""","""","""","""","""","""","""","""","""","""","""","2021-08-17 18:03:36",89.64.118.36,"Mozilla/5.0 (Windows NT 10.0; Win64; x64) AppleWebKit/537.36 (KHTML, like Gecko) Chrome/92.0.4515.159 Safari/537.36",WebKit,Chrome,92.0.4515.159,Windows,10.0,5f461dd6c139dd6b46c7596cbd57cd79
217,1,"""","""","""","""","""",sampler,73,197837,0.0-6.0-67.0,"""","""","""","""","""","""","""","""","""","""","""","""","2021-08-17 18:03:36",89.64.118.36,"Mozilla/5.0 (Windows NT 10.0; Win64; x64) AppleWebKit/537.36 (KHTML, like Gecko) Chrome/92.0.4515.159 Safari/537.36",WebKit,Chrome,92.0.4515.159,Windows,10.0,5f461dd6c139dd6b46c7596cbd57cd79
217,1,"""","""","""","""","""",sampler,74,197837,0.0-6.0-68.0,"""","""","""","""","""","""","""","""","""","""","""","""","2021-08-17 18:03:36",89.64.118.36,"Mozilla/5.0 (Windows NT 10.0; Win64; x64) AppleWebKit/537.36 (KHTML, like Gecko) Chrome/92.0.4515.159 Safari/537.36",WebKit,Chrome,92.0.4515.159,Windows,10.0,5f461dd6c139dd6b46c7596cbd57cd79
217,1,"""","""","""","""","""",sampler,75,197838,0.0-6.0-69.0,"""","""","""","""","""","""","""","""","""","""","""","""","2021-08-17 18:03:36",89.64.118.36,"Mozilla/5.0 (Windows NT 10.0; Win64; x64) AppleWebKit/537.36 (KHTML, like Gecko) Chrome/92.0.4515.159 Safari/537.36",WebKit,Chrome,92.0.4515.159,Windows,10.0,5f461dd6c139dd6b46c7596cbd57cd79
217,1,"""","""","""","""","""",sampler,76,197838,0.0-6.0-70.0,"""","""","""","""","""","""","""","""","""","""","""","""","2021-08-17 18:03:36",89.64.118.36,"Mozilla/5.0 (Windows NT 10.0; Win64; x64) AppleWebKit/537.36 (KHTML, like Gecko) Chrome/92.0.4515.159 Safari/537.36",WebKit,Chrome,92.0.4515.159,Windows,10.0,5f461dd6c139dd6b46c7596cbd57cd79
217,1,"""","""","""","""","""",sampler,77,197839,0.0-6.0-71.0,"""","""","""","""","""","""","""","""","""","""","""","""","2021-08-17 18:03:36",89.64.118.36,"Mozilla/5.0 (Windows NT 10.0; Win64; x64) AppleWebKit/537.36 (KHTML, like Gecko) Chrome/92.0.4515.159 Safari/537.36",WebKit,Chrome,92.0.4515.159,Windows,10.0,5f461dd6c139dd6b46c7596cbd57cd79
217,1,"""","""","""","""","""",sampler,78,197839,0.0-6.0-72.0,"""","""","""","""","""","""","""","""","""","""","""","""","2021-08-17 18:03:36",89.64.118.36,"Mozilla/5.0 (Windows NT 10.0; Win64; x64) AppleWebKit/537.36 (KHTML, like Gecko) Chrome/92.0.4515.159 Safari/537.36",WebKit,Chrome,92.0.4515.159,Windows,10.0,5f461dd6c139dd6b46c7596cbd57cd79
217,1,"""","""","""","""","""",sampler,79,197840,0.0-6.0-73.0,"""","""","""","""","""","""","""","""","""","""","""","""","2021-08-17 18:03:36",89.64.118.36,"Mozilla/5.0 (Windows NT 10.0; Win64; x64) AppleWebKit/537.36 (KHTML, like Gecko) Chrome/92.0.4515.159 Safari/537.36",WebKit,Chrome,92.0.4515.159,Windows,10.0,5f461dd6c139dd6b46c7596cbd57cd79
217,1,"""","""","""","""","""",sampler,80,197841,0.0-6.0-74.0,"""","""","""","""","""","""","""","""","""","""","""","""","2021-08-17 18:03:36",89.64.118.36,"Mozilla/5.0 (Windows NT 10.0; Win64; x64) AppleWebKit/537.36 (KHTML, like Gecko) Chrome/92.0.4515.159 Safari/537.36",WebKit,Chrome,92.0.4515.159,Windows,10.0,5f461dd6c139dd6b46c7596cbd57cd79
217,1,"""","""","""","""","""",sampler,81,197841,0.0-6.0-75.0,"""","""","""","""","""","""","""","""","""","""","""","""","2021-08-17 18:03:36",89.64.118.36,"Mozilla/5.0 (Windows NT 10.0; Win64; x64) AppleWebKit/537.36 (KHTML, like Gecko) Chrome/92.0.4515.159 Safari/537.36",WebKit,Chrome,92.0.4515.159,Windows,10.0,5f461dd6c139dd6b46c7596cbd57cd79
217,1,"""","""","""","""","""",sampler,82,197841,0.0-6.0-76.0,"""","""","""","""","""","""","""","""","""","""","""","""","2021-08-17 18:03:36",89.64.118.36,"Mozilla/5.0 (Windows NT 10.0; Win64; x64) AppleWebKit/537.36 (KHTML, like Gecko) Chrome/92.0.4515.159 Safari/537.36",WebKit,Chrome,92.0.4515.159,Windows,10.0,5f461dd6c139dd6b46c7596cbd57cd79
217,1,"""","""","""","""","""",sampler,83,197841,0.0-6.0-77.0,"""","""","""","""","""","""","""","""","""","""","""","""","2021-08-17 18:03:36",89.64.118.36,"Mozilla/5.0 (Windows NT 10.0; Win64; x64) AppleWebKit/537.36 (KHTML, like Gecko) Chrome/92.0.4515.159 Safari/537.36",WebKit,Chrome,92.0.4515.159,Windows,10.0,5f461dd6c139dd6b46c7596cbd57cd79
217,1,"""","""","""","""","""",sampler,84,197841,0.0-6.0-78.0,"""","""","""","""","""","""","""","""","""","""","""","""","2021-08-17 18:03:36",89.64.118.36,"Mozilla/5.0 (Windows NT 10.0; Win64; x64) AppleWebKit/537.36 (KHTML, like Gecko) Chrome/92.0.4515.159 Safari/537.36",WebKit,Chrome,92.0.4515.159,Windows,10.0,5f461dd6c139dd6b46c7596cbd57cd79
217,1,"""","""","""","""","""",sampler,85,197841,0.0-6.0-79.0,"""","""","""","""","""","""","""","""","""","""","""","""","2021-08-17 18:03:36",89.64.118.36,"Mozilla/5.0 (Windows NT 10.0; Win64; x64) AppleWebKit/537.36 (KHTML, like Gecko) Chrome/92.0.4515.159 Safari/537.36",WebKit,Chrome,92.0.4515.159,Windows,10.0,5f461dd6c139dd6b46c7596cbd57cd79
217,1,"""","""","""","""","""",sampler,86,197842,0.0-6.0-80.0,"""","""","""","""","""","""","""","""","""","""","""","""","2021-08-17 18:03:36",89.64.118.36,"Mozilla/5.0 (Windows NT 10.0; Win64; x64) AppleWebKit/537.36 (KHTML, like Gecko) Chrome/92.0.4515.159 Safari/537.36",WebKit,Chrome,92.0.4515.159,Windows,10.0,5f461dd6c139dd6b46c7596cbd57cd79
217,1,"""","""","""","""","""",sampler,87,197842,0.0-6.0-81.0,"""","""","""","""","""","""","""","""","""","""","""","""","2021-08-17 18:03:36",89.64.118.36,"Mozilla/5.0 (Windows NT 10.0; Win64; x64) AppleWebKit/537.36 (KHTML, like Gecko) Chrome/92.0.4515.159 Safari/537.36",WebKit,Chrome,92.0.4515.159,Windows,10.0,5f461dd6c139dd6b46c7596cbd57cd79
217,1,"""","""","""","""","""",sampler,88,197842,0.0-6.0-82.0,"""","""","""","""","""","""","""","""","""","""","""","""","2021-08-17 18:03:36",89.64.118.36,"Mozilla/5.0 (Windows NT 10.0; Win64; x64) AppleWebKit/537.36 (KHTML, like Gecko) Chrome/92.0.4515.159 Safari/537.36",WebKit,Chrome,92.0.4515.159,Windows,10.0,5f461dd6c139dd6b46c7596cbd57cd79
217,1,"""","""","""","""","""",sampler,89,197842,0.0-6.0-83.0,"""","""","""","""","""","""","""","""","""","""","""","""","2021-08-17 18:03:36",89.64.118.36,"Mozilla/5.0 (Windows NT 10.0; Win64; x64) AppleWebKit/537.36 (KHTML, like Gecko) Chrome/92.0.4515.159 Safari/537.36",WebKit,Chrome,92.0.4515.159,Windows,10.0,5f461dd6c139dd6b46c7596cbd57cd79
217,1,"""","""","""","""","""",sampler,90,197842,0.0-6.0-84.0,"""","""","""","""","""","""","""","""","""","""","""","""","2021-08-17 18:03:36",89.64.118.36,"Mozilla/5.0 (Windows NT 10.0; Win64; x64) AppleWebKit/537.36 (KHTML, like Gecko) Chrome/92.0.4515.159 Safari/537.36",WebKit,Chrome,92.0.4515.159,Windows,10.0,5f461dd6c139dd6b46c7596cbd57cd79
217,1,"""","""","""","""","""",sampler,91,197842,0.0-6.0-85.0,"""","""","""","""","""","""","""","""","""","""","""","""","2021-08-17 18:03:36",89.64.118.36,"Mozilla/5.0 (Windows NT 10.0; Win64; x64) AppleWebKit/537.36 (KHTML, like Gecko) Chrome/92.0.4515.159 Safari/537.36",WebKit,Chrome,92.0.4515.159,Windows,10.0,5f461dd6c139dd6b46c7596cbd57cd79
217,1,"""","""","""","""","""",sampler,92,197842,0.0-6.0-86.0,"""","""","""","""","""","""","""","""","""","""","""","""","2021-08-17 18:03:36",89.64.118.36,"Mozilla/5.0 (Windows NT 10.0; Win64; x64) AppleWebKit/537.36 (KHTML, like Gecko) Chrome/92.0.4515.159 Safari/537.36",WebKit,Chrome,92.0.4515.159,Windows,10.0,5f461dd6c139dd6b46c7596cbd57cd79
217,1,"""","""","""","""","""",sampler,93,197842,0.0-6.0-87.0,"""","""","""","""","""","""","""","""","""","""","""","""","2021-08-17 18:03:36",89.64.118.36,"Mozilla/5.0 (Windows NT 10.0; Win64; x64) AppleWebKit/537.36 (KHTML, like Gecko) Chrome/92.0.4515.159 Safari/537.36",WebKit,Chrome,92.0.4515.159,Windows,10.0,5f461dd6c139dd6b46c7596cbd57cd79
217,1,"""","""","""","""","""",sampler,94,197842,0.0-6.0-88.0,"""","""","""","""","""","""","""","""","""","""","""","""","2021-08-17 18:03:36",89.64.118.36,"Mozilla/5.0 (Windows NT 10.0; Win64; x64) AppleWebKit/537.36 (KHTML, like Gecko) Chrome/92.0.4515.159 Safari/537.36",WebKit,Chrome,92.0.4515.159,Windows,10.0,5f461dd6c139dd6b46c7596cbd57cd79
217,1,"""","""","""","""","""",sampler,95,197842,0.0-6.0-89.0,"""","""","""","""","""","""","""","""","""","""","""","""","2021-08-17 18:03:36",89.64.118.36,"Mozilla/5.0 (Windows NT 10.0; Win64; x64) AppleWebKit/537.36 (KHTML, like Gecko) Chrome/92.0.4515.159 Safari/537.36",WebKit,Chrome,92.0.4515.159,Windows,10.0,5f461dd6c139dd6b46c7596cbd57cd79
217,1,"""","""","""","""","""",sampler,96,197842,0.0-6.0-90.0,"""","""","""","""","""","""","""","""","""","""","""","""","2021-08-17 18:03:36",89.64.118.36,"Mozilla/5.0 (Windows NT 10.0; Win64; x64) AppleWebKit/537.36 (KHTML, like Gecko) Chrome/92.0.4515.159 Safari/537.36",WebKit,Chrome,92.0.4515.159,Windows,10.0,5f461dd6c139dd6b46c7596cbd57cd79
217,1,"""","""","""","""","""",sampler,97,197843,0.0-6.0-91.0,"""","""","""","""","""","""","""","""","""","""","""","""","2021-08-17 18:03:36",89.64.118.36,"Mozilla/5.0 (Windows NT 10.0; Win64; x64) AppleWebKit/537.36 (KHTML, like Gecko) Chrome/92.0.4515.159 Safari/537.36",WebKit,Chrome,92.0.4515.159,Windows,10.0,5f461dd6c139dd6b46c7596cbd57cd79
217,1,"""","""","""","""","""",sampler,98,197843,0.0-6.0-92.0,"""","""","""","""","""","""","""","""","""","""","""","""","2021-08-17 18:03:36",89.64.118.36,"Mozilla/5.0 (Windows NT 10.0; Win64; x64) AppleWebKit/537.36 (KHTML, like Gecko) Chrome/92.0.4515.159 Safari/537.36",WebKit,Chrome,92.0.4515.159,Windows,10.0,5f461dd6c139dd6b46c7596cbd57cd79
217,1,"""","""","""","""","""",sampler,99,197843,0.0-6.0-93.0,"""","""","""","""","""","""","""","""","""","""","""","""","2021-08-17 18:03:36",89.64.118.36,"Mozilla/5.0 (Windows NT 10.0; Win64; x64) AppleWebKit/537.36 (KHTML, like Gecko) Chrome/92.0.4515.159 Safari/537.36",WebKit,Chrome,92.0.4515.159,Windows,10.0,5f461dd6c139dd6b46c7596cbd57cd79
217,1,"""","""","""","""","""",sampler,100,197843,0.0-6.0-94.0,"""","""","""","""","""","""","""","""","""","""","""","""","2021-08-17 18:03:36",89.64.118.36,"Mozilla/5.0 (Windows NT 10.0; Win64; x64) AppleWebKit/537.36 (KHTML, like Gecko) Chrome/92.0.4515.159 Safari/537.36",WebKit,Chrome,92.0.4515.159,Windows,10.0,5f461dd6c139dd6b46c7596cbd57cd79
217,1,"""","""","""","""","""",sampler,101,197843,0.0-6.0-95.0,"""","""","""","""","""","""","""","""","""","""","""","""","2021-08-17 18:03:36",89.64.118.36,"Mozilla/5.0 (Windows NT 10.0; Win64; x64) AppleWebKit/537.36 (KHTML, like Gecko) Chrome/92.0.4515.159 Safari/537.36",WebKit,Chrome,92.0.4515.159,Windows,10.0,5f461dd6c139dd6b46c7596cbd57cd79
217,1,"""","""","""","""","""",sampler,102,197843,0.0-6.0-96.0,"""","""","""","""","""","""","""","""","""","""","""","""","2021-08-17 18:03:36",89.64.118.36,"Mozilla/5.0 (Windows NT 10.0; Win64; x64) AppleWebKit/537.36 (KHTML, like Gecko) Chrome/92.0.4515.159 Safari/537.36",WebKit,Chrome,92.0.4515.159,Windows,10.0,5f461dd6c139dd6b46c7596cbd57cd79
217,1,"""","""","""","""","""",sampler,103,197843,0.0-6.0-97.0,"""","""","""","""","""","""","""","""","""","""","""","""","2021-08-17 18:03:36",89.64.118.36,"Mozilla/5.0 (Windows NT 10.0; Win64; x64) AppleWebKit/537.36 (KHTML, like Gecko) Chrome/92.0.4515.159 Safari/537.36",WebKit,Chrome,92.0.4515.159,Windows,10.0,5f461dd6c139dd6b46c7596cbd57cd79
217,1,"""","""","""","""","""",sampler,104,197843,0.0-6.0-98.0,"""","""","""","""","""","""","""","""","""","""","""","""","2021-08-17 18:03:36",89.64.118.36,"Mozilla/5.0 (Windows NT 10.0; Win64; x64) AppleWebKit/537.36 (KHTML, like Gecko) Chrome/92.0.4515.159 Safari/537.36",WebKit,Chrome,92.0.4515.159,Windows,10.0,5f461dd6c139dd6b46c7596cbd57cd79
217,1,"""","""","""","""","""",sampler,105,197844,0.0-6.0-99.0,"""","""","""","""","""","""","""","""","""","""","""","""","2021-08-17 18:03:36",89.64.118.36,"Mozilla/5.0 (Windows NT 10.0; Win64; x64) AppleWebKit/537.36 (KHTML, like Gecko) Chrome/92.0.4515.159 Safari/537.36",WebKit,Chrome,92.0.4515.159,Windows,10.0,5f461dd6c139dd6b46c7596cbd57cd79
217,1,"""","""","""","""","""",sampler,106,197844,0.0-6.0-100.0,"""","""","""","""","""","""","""","""","""","""","""","""","2021-08-17 18:03:36",89.64.118.36,"Mozilla/5.0 (Windows NT 10.0; Win64; x64) AppleWebKit/537.36 (KHTML, like Gecko) Chrome/92.0.4515.159 Safari/537.36",WebKit,Chrome,92.0.4515.159,Windows,10.0,5f461dd6c139dd6b46c7596cbd57cd79
217,1,"""","""","""","""","""",sampler,107,197844,0.0-6.0-101.0,"""","""","""","""","""","""","""","""","""","""","""","""","2021-08-17 18:03:36",89.64.118.36,"Mozilla/5.0 (Windows NT 10.0; Win64; x64) AppleWebKit/537.36 (KHTML, like Gecko) Chrome/92.0.4515.159 Safari/537.36",WebKit,Chrome,92.0.4515.159,Windows,10.0,5f461dd6c139dd6b46c7596cbd57cd79
217,1,"""","""","""","""","""",sampler,108,197844,0.0-6.0-102.0,"""","""","""","""","""","""","""","""","""","""","""","""","2021-08-17 18:03:36",89.64.118.36,"Mozilla/5.0 (Windows NT 10.0; Win64; x64) AppleWebKit/537.36 (KHTML, like Gecko) Chrome/92.0.4515.159 Safari/537.36",WebKit,Chrome,92.0.4515.159,Windows,10.0,5f461dd6c139dd6b46c7596cbd57cd79
217,1,"""","""","""","""","""",sampler,109,197844,0.0-6.0-103.0,"""","""","""","""","""","""","""","""","""","""","""","""","2021-08-17 18:03:36",89.64.118.36,"Mozilla/5.0 (Windows NT 10.0; Win64; x64) AppleWebKit/537.36 (KHTML, like Gecko) Chrome/92.0.4515.159 Safari/537.36",WebKit,Chrome,92.0.4515.159,Windows,10.0,5f461dd6c139dd6b46c7596cbd57cd79
217,1,"""","""","""","""","""",sampler,110,197844,0.0-6.0-104.0,"""","""","""","""","""","""","""","""","""","""","""","""","2021-08-17 18:03:36",89.64.118.36,"Mozilla/5.0 (Windows NT 10.0; Win64; x64) AppleWebKit/537.36 (KHTML, like Gecko) Chrome/92.0.4515.159 Safari/537.36",WebKit,Chrome,92.0.4515.159,Windows,10.0,5f461dd6c139dd6b46c7596cbd57cd79
217,1,"""","""","""","""","""",sampler,111,197844,0.0-6.0-105.0,"""","""","""","""","""","""","""","""","""","""","""","""","2021-08-17 18:03:36",89.64.118.36,"Mozilla/5.0 (Windows NT 10.0; Win64; x64) AppleWebKit/537.36 (KHTML, like Gecko) Chrome/92.0.4515.159 Safari/537.36",WebKit,Chrome,92.0.4515.159,Windows,10.0,5f461dd6c139dd6b46c7596cbd57cd79
217,1,"""","""","""","""","""",sampler,112,197844,0.0-6.0-106.0,"""","""","""","""","""","""","""","""","""","""","""","""","2021-08-17 18:03:36",89.64.118.36,"Mozilla/5.0 (Windows NT 10.0; Win64; x64) AppleWebKit/537.36 (KHTML, like Gecko) Chrome/92.0.4515.159 Safari/537.36",WebKit,Chrome,92.0.4515.159,Windows,10.0,5f461dd6c139dd6b46c7596cbd57cd79
217,1,"""","""","""","""","""",sampler,113,197844,0.0-6.0-107.0,"""","""","""","""","""","""","""","""","""","""","""","""","2021-08-17 18:03:36",89.64.118.36,"Mozilla/5.0 (Windows NT 10.0; Win64; x64) AppleWebKit/537.36 (KHTML, like Gecko) Chrome/92.0.4515.159 Safari/537.36",WebKit,Chrome,92.0.4515.159,Windows,10.0,5f461dd6c139dd6b46c7596cbd57cd79
217,1,"""","""","""","""","""",sampler,114,197844,0.0-6.0-108.0,"""","""","""","""","""","""","""","""","""","""","""","""","2021-08-17 18:03:36",89.64.118.36,"Mozilla/5.0 (Windows NT 10.0; Win64; x64) AppleWebKit/537.36 (KHTML, like Gecko) Chrome/92.0.4515.159 Safari/537.36",WebKit,Chrome,92.0.4515.159,Windows,10.0,5f461dd6c139dd6b46c7596cbd57cd79
217,1,"""","""","""","""","""",sampler,115,197844,0.0-6.0-109.0,"""","""","""","""","""","""","""","""","""","""","""","""","2021-08-17 18:03:36",89.64.118.36,"Mozilla/5.0 (Windows NT 10.0; Win64; x64) AppleWebKit/537.36 (KHTML, like Gecko) Chrome/92.0.4515.159 Safari/537.36",WebKit,Chrome,92.0.4515.159,Windows,10.0,5f461dd6c139dd6b46c7596cbd57cd79
217,1,"""","""","""","""","""",sampler,116,197845,0.0-6.0-110.0,"""","""","""","""","""","""","""","""","""","""","""","""","2021-08-17 18:03:36",89.64.118.36,"Mozilla/5.0 (Windows NT 10.0; Win64; x64) AppleWebKit/537.36 (KHTML, like Gecko) Chrome/92.0.4515.159 Safari/537.36",WebKit,Chrome,92.0.4515.159,Windows,10.0,5f461dd6c139dd6b46c7596cbd57cd79
217,1,"""","""","""","""","""",sampler,117,197845,0.0-6.0-111.0,"""","""","""","""","""","""","""","""","""","""","""","""","2021-08-17 18:03:36",89.64.118.36,"Mozilla/5.0 (Windows NT 10.0; Win64; x64) AppleWebKit/537.36 (KHTML, like Gecko) Chrome/92.0.4515.159 Safari/537.36",WebKit,Chrome,92.0.4515.159,Windows,10.0,5f461dd6c139dd6b46c7596cbd57cd79
217,1,"""","""","""","""","""",sampler,118,197845,0.0-6.0-112.0,"""","""","""","""","""","""","""","""","""","""","""","""","2021-08-17 18:03:36",89.64.118.36,"Mozilla/5.0 (Windows NT 10.0; Win64; x64) AppleWebKit/537.36 (KHTML, like Gecko) Chrome/92.0.4515.159 Safari/537.36",WebKit,Chrome,92.0.4515.159,Windows,10.0,5f461dd6c139dd6b46c7596cbd57cd79
217,1,"""","""","""","""","""",sampler,119,197845,0.0-6.0-113.0,"""","""","""","""","""","""","""","""","""","""","""","""","2021-08-17 18:03:36",89.64.118.36,"Mozilla/5.0 (Windows NT 10.0; Win64; x64) AppleWebKit/537.36 (KHTML, like Gecko) Chrome/92.0.4515.159 Safari/537.36",WebKit,Chrome,92.0.4515.159,Windows,10.0,5f461dd6c139dd6b46c7596cbd57cd79
217,1,"""","""","""","""","""",sampler,120,197845,0.0-6.0-114.0,"""","""","""","""","""","""","""","""","""","""","""","""","2021-08-17 18:03:36",89.64.118.36,"Mozilla/5.0 (Windows NT 10.0; Win64; x64) AppleWebKit/537.36 (KHTML, like Gecko) Chrome/92.0.4515.159 Safari/537.36",WebKit,Chrome,92.0.4515.159,Windows,10.0,5f461dd6c139dd6b46c7596cbd57cd79
217,1,"""","""","""","""","""",sampler,121,197845,0.0-6.0-115.0,"""","""","""","""","""","""","""","""","""","""","""","""","2021-08-17 18:03:36",89.64.118.36,"Mozilla/5.0 (Windows NT 10.0; Win64; x64) AppleWebKit/537.36 (KHTML, like Gecko) Chrome/92.0.4515.159 Safari/537.36",WebKit,Chrome,92.0.4515.159,Windows,10.0,5f461dd6c139dd6b46c7596cbd57cd79
217,1,"""","""","""","""","""",sampler,122,197845,0.0-6.0-116.0,"""","""","""","""","""","""","""","""","""","""","""","""","2021-08-17 18:03:36",89.64.118.36,"Mozilla/5.0 (Windows NT 10.0; Win64; x64) AppleWebKit/537.36 (KHTML, like Gecko) Chrome/92.0.4515.159 Safari/537.36",WebKit,Chrome,92.0.4515.159,Windows,10.0,5f461dd6c139dd6b46c7596cbd57cd79
217,1,"""","""","""","""","""",sampler,123,197845,0.0-6.0-117.0,"""","""","""","""","""","""","""","""","""","""","""","""","2021-08-17 18:03:36",89.64.118.36,"Mozilla/5.0 (Windows NT 10.0; Win64; x64) AppleWebKit/537.36 (KHTML, like Gecko) Chrome/92.0.4515.159 Safari/537.36",WebKit,Chrome,92.0.4515.159,Windows,10.0,5f461dd6c139dd6b46c7596cbd57cd79
217,1,"""","""","""","""","""",sampler,124,197845,0.0-6.0-118.0,"""","""","""","""","""","""","""","""","""","""","""","""","2021-08-17 18:03:36",89.64.118.36,"Mozilla/5.0 (Windows NT 10.0; Win64; x64) AppleWebKit/537.36 (KHTML, like Gecko) Chrome/92.0.4515.159 Safari/537.36",WebKit,Chrome,92.0.4515.159,Windows,10.0,5f461dd6c139dd6b46c7596cbd57cd79
217,1,"""","""","""","""","""",sampler,125,197845,0.0-6.0-119.0,"""","""","""","""","""","""","""","""","""","""","""","""","2021-08-17 18:03:36",89.64.118.36,"Mozilla/5.0 (Windows NT 10.0; Win64; x64) AppleWebKit/537.36 (KHTML, like Gecko) Chrome/92.0.4515.159 Safari/537.36",WebKit,Chrome,92.0.4515.159,Windows,10.0,5f461dd6c139dd6b46c7596cbd57cd79
217,1,"""","""","""","""","""",sampler,126,197846,0.0-6.0-120.0,"""","""","""","""","""","""","""","""","""","""","""","""","2021-08-17 18:03:36",89.64.118.36,"Mozilla/5.0 (Windows NT 10.0; Win64; x64) AppleWebKit/537.36 (KHTML, like Gecko) Chrome/92.0.4515.159 Safari/537.36",WebKit,Chrome,92.0.4515.159,Windows,10.0,5f461dd6c139dd6b46c7596cbd57cd79
217,1,"""","""","""","""","""",sampler,127,197846,0.0-6.0-121.0,"""","""","""","""","""","""","""","""","""","""","""","""","2021-08-17 18:03:36",89.64.118.36,"Mozilla/5.0 (Windows NT 10.0; Win64; x64) AppleWebKit/537.36 (KHTML, like Gecko) Chrome/92.0.4515.159 Safari/537.36",WebKit,Chrome,92.0.4515.159,Windows,10.0,5f461dd6c139dd6b46c7596cbd57cd79
217,1,"""","""","""","""","""",sampler,128,197846,0.0-6.0-122.0,"""","""","""","""","""","""","""","""","""","""","""","""","2021-08-17 18:03:36",89.64.118.36,"Mozilla/5.0 (Windows NT 10.0; Win64; x64) AppleWebKit/537.36 (KHTML, like Gecko) Chrome/92.0.4515.159 Safari/537.36",WebKit,Chrome,92.0.4515.159,Windows,10.0,5f461dd6c139dd6b46c7596cbd57cd79
217,1,"""","""","""","""","""",sampler,129,197846,0.0-6.0-123.0,"""","""","""","""","""","""","""","""","""","""","""","""","2021-08-17 18:03:36",89.64.118.36,"Mozilla/5.0 (Windows NT 10.0; Win64; x64) AppleWebKit/537.36 (KHTML, like Gecko) Chrome/92.0.4515.159 Safari/537.36",WebKit,Chrome,92.0.4515.159,Windows,10.0,5f461dd6c139dd6b46c7596cbd57cd79
217,1,"""","""","""","""","""",sampler,130,197846,0.0-6.0-124.0,"""","""","""","""","""","""","""","""","""","""","""","""","2021-08-17 18:03:36",89.64.118.36,"Mozilla/5.0 (Windows NT 10.0; Win64; x64) AppleWebKit/537.36 (KHTML, like Gecko) Chrome/92.0.4515.159 Safari/537.36",WebKit,Chrome,92.0.4515.159,Windows,10.0,5f461dd6c139dd6b46c7596cbd57cd79
217,1,"""","""","""","""","""",sampler,131,197846,0.0-6.0-125.0,"""","""","""","""","""","""","""","""","""","""","""","""","2021-08-17 18:03:36",89.64.118.36,"Mozilla/5.0 (Windows NT 10.0; Win64; x64) AppleWebKit/537.36 (KHTML, like Gecko) Chrome/92.0.4515.159 Safari/537.36",WebKit,Chrome,92.0.4515.159,Windows,10.0,5f461dd6c139dd6b46c7596cbd57cd79
217,1,"""","""","""","""","""",sampler,132,197846,0.0-6.0-126.0,"""","""","""","""","""","""","""","""","""","""","""","""","2021-08-17 18:03:36",89.64.118.36,"Mozilla/5.0 (Windows NT 10.0; Win64; x64) AppleWebKit/537.36 (KHTML, like Gecko) Chrome/92.0.4515.159 Safari/537.36",WebKit,Chrome,92.0.4515.159,Windows,10.0,5f461dd6c139dd6b46c7596cbd57cd79
217,1,"""","""","""","""","""",sampler,133,197846,0.0-6.0-127.0,"""","""","""","""","""","""","""","""","""","""","""","""","2021-08-17 18:03:36",89.64.118.36,"Mozilla/5.0 (Windows NT 10.0; Win64; x64) AppleWebKit/537.36 (KHTML, like Gecko) Chrome/92.0.4515.159 Safari/537.36",WebKit,Chrome,92.0.4515.159,Windows,10.0,5f461dd6c139dd6b46c7596cbd57cd79
217,1,"""","""","""","""","""",sampler,134,197846,0.0-6.0-128.0,"""","""","""","""","""","""","""","""","""","""","""","""","2021-08-17 18:03:36",89.64.118.36,"Mozilla/5.0 (Windows NT 10.0; Win64; x64) AppleWebKit/537.36 (KHTML, like Gecko) Chrome/92.0.4515.159 Safari/537.36",WebKit,Chrome,92.0.4515.159,Windows,10.0,5f461dd6c139dd6b46c7596cbd57cd79
217,1,"""","""","""","""","""",sampler,135,197846,0.0-6.0-129.0,"""","""","""","""","""","""","""","""","""","""","""","""","2021-08-17 18:03:36",89.64.118.36,"Mozilla/5.0 (Windows NT 10.0; Win64; x64) AppleWebKit/537.36 (KHTML, like Gecko) Chrome/92.0.4515.159 Safari/537.36",WebKit,Chrome,92.0.4515.159,Windows,10.0,5f461dd6c139dd6b46c7596cbd57cd79
217,1,"""","""","""","""","""",sampler,136,197847,0.0-6.0-130.0,"""","""","""","""","""","""","""","""","""","""","""","""","2021-08-17 18:03:36",89.64.118.36,"Mozilla/5.0 (Windows NT 10.0; Win64; x64) AppleWebKit/537.36 (KHTML, like Gecko) Chrome/92.0.4515.159 Safari/537.36",WebKit,Chrome,92.0.4515.159,Windows,10.0,5f461dd6c139dd6b46c7596cbd57cd79
217,1,"""","""","""","""","""",sampler,137,197847,0.0-6.0-131.0,"""","""","""","""","""","""","""","""","""","""","""","""","2021-08-17 18:03:36",89.64.118.36,"Mozilla/5.0 (Windows NT 10.0; Win64; x64) AppleWebKit/537.36 (KHTML, like Gecko) Chrome/92.0.4515.159 Safari/537.36",WebKit,Chrome,92.0.4515.159,Windows,10.0,5f461dd6c139dd6b46c7596cbd57cd79
217,1,"""","""","""","""","""",sampler,138,197847,0.0-6.0-132.0,"""","""","""","""","""","""","""","""","""","""","""","""","2021-08-17 18:03:36",89.64.118.36,"Mozilla/5.0 (Windows NT 10.0; Win64; x64) AppleWebKit/537.36 (KHTML, like Gecko) Chrome/92.0.4515.159 Safari/537.36",WebKit,Chrome,92.0.4515.159,Windows,10.0,5f461dd6c139dd6b46c7596cbd57cd79
217,1,"""","""","""","""","""",sampler,139,197847,0.0-6.0-133.0,"""","""","""","""","""","""","""","""","""","""","""","""","2021-08-17 18:03:36",89.64.118.36,"Mozilla/5.0 (Windows NT 10.0; Win64; x64) AppleWebKit/537.36 (KHTML, like Gecko) Chrome/92.0.4515.159 Safari/537.36",WebKit,Chrome,92.0.4515.159,Windows,10.0,5f461dd6c139dd6b46c7596cbd57cd79
217,1,"""","""","""","""","""",sampler,140,197847,0.0-6.0-134.0,"""","""","""","""","""","""","""","""","""","""","""","""","2021-08-17 18:03:36",89.64.118.36,"Mozilla/5.0 (Windows NT 10.0; Win64; x64) AppleWebKit/537.36 (KHTML, like Gecko) Chrome/92.0.4515.159 Safari/537.36",WebKit,Chrome,92.0.4515.159,Windows,10.0,5f461dd6c139dd6b46c7596cbd57cd79
217,1,"""","""","""","""","""",sampler,141,197847,0.0-6.0-135.0,"""","""","""","""","""","""","""","""","""","""","""","""","2021-08-17 18:03:36",89.64.118.36,"Mozilla/5.0 (Windows NT 10.0; Win64; x64) AppleWebKit/537.36 (KHTML, like Gecko) Chrome/92.0.4515.159 Safari/537.36",WebKit,Chrome,92.0.4515.159,Windows,10.0,5f461dd6c139dd6b46c7596cbd57cd79
217,1,"""","""","""","""","""",sampler,142,197847,0.0-6.0-136.0,"""","""","""","""","""","""","""","""","""","""","""","""","2021-08-17 18:03:36",89.64.118.36,"Mozilla/5.0 (Windows NT 10.0; Win64; x64) AppleWebKit/537.36 (KHTML, like Gecko) Chrome/92.0.4515.159 Safari/537.36",WebKit,Chrome,92.0.4515.159,Windows,10.0,5f461dd6c139dd6b46c7596cbd57cd79
217,1,"""","""","""","""","""",sampler,143,197847,0.0-6.0-137.0,"""","""","""","""","""","""","""","""","""","""","""","""","2021-08-17 18:03:36",89.64.118.36,"Mozilla/5.0 (Windows NT 10.0; Win64; x64) AppleWebKit/537.36 (KHTML, like Gecko) Chrome/92.0.4515.159 Safari/537.36",WebKit,Chrome,92.0.4515.159,Windows,10.0,5f461dd6c139dd6b46c7596cbd57cd79
217,1,"""","""","""","""","""",sampler,144,197847,0.0-6.0-138.0,"""","""","""","""","""","""","""","""","""","""","""","""","2021-08-17 18:03:36",89.64.118.36,"Mozilla/5.0 (Windows NT 10.0; Win64; x64) AppleWebKit/537.36 (KHTML, like Gecko) Chrome/92.0.4515.159 Safari/537.36",WebKit,Chrome,92.0.4515.159,Windows,10.0,5f461dd6c139dd6b46c7596cbd57cd79
217,1,"""","""","""","""","""",sampler,145,197848,0.0-6.0-139.0,"""","""","""","""","""","""","""","""","""","""","""","""","2021-08-17 18:03:36",89.64.118.36,"Mozilla/5.0 (Windows NT 10.0; Win64; x64) AppleWebKit/537.36 (KHTML, like Gecko) Chrome/92.0.4515.159 Safari/537.36",WebKit,Chrome,92.0.4515.159,Windows,10.0,5f461dd6c139dd6b46c7596cbd57cd79
217,1,"""","""","""","""","""",sampler,146,197848,0.0-6.0-140.0,"""","""","""","""","""","""","""","""","""","""","""","""","2021-08-17 18:03:36",89.64.118.36,"Mozilla/5.0 (Windows NT 10.0; Win64; x64) AppleWebKit/537.36 (KHTML, like Gecko) Chrome/92.0.4515.159 Safari/537.36",WebKit,Chrome,92.0.4515.159,Windows,10.0,5f461dd6c139dd6b46c7596cbd57cd79
217,1,"""","""","""","""","""",sampler,147,197848,0.0-6.0-141.0,"""","""","""","""","""","""","""","""","""","""","""","""","2021-08-17 18:03:36",89.64.118.36,"Mozilla/5.0 (Windows NT 10.0; Win64; x64) AppleWebKit/537.36 (KHTML, like Gecko) Chrome/92.0.4515.159 Safari/537.36",WebKit,Chrome,92.0.4515.159,Windows,10.0,5f461dd6c139dd6b46c7596cbd57cd79
217,1,"""","""","""","""","""",sampler,148,197848,0.0-6.0-142.0,"""","""","""","""","""","""","""","""","""","""","""","""","2021-08-17 18:03:36",89.64.118.36,"Mozilla/5.0 (Windows NT 10.0; Win64; x64) AppleWebKit/537.36 (KHTML, like Gecko) Chrome/92.0.4515.159 Safari/537.36",WebKit,Chrome,92.0.4515.159,Windows,10.0,5f461dd6c139dd6b46c7596cbd57cd79
217,1,"""","""","""","""","""",sampler,149,197848,0.0-6.0-143.0,"""","""","""","""","""","""","""","""","""","""","""","""","2021-08-17 18:03:36",89.64.118.36,"Mozilla/5.0 (Windows NT 10.0; Win64; x64) AppleWebKit/537.36 (KHTML, like Gecko) Chrome/92.0.4515.159 Safari/537.36",WebKit,Chrome,92.0.4515.159,Windows,10.0,5f461dd6c139dd6b46c7596cbd57cd79
217,1,"""","""","""","""","""",sampler,150,197848,0.0-6.0-144.0,"""","""","""","""","""","""","""","""","""","""","""","""","2021-08-17 18:03:36",89.64.118.36,"Mozilla/5.0 (Windows NT 10.0; Win64; x64) AppleWebKit/537.36 (KHTML, like Gecko) Chrome/92.0.4515.159 Safari/537.36",WebKit,Chrome,92.0.4515.159,Windows,10.0,5f461dd6c139dd6b46c7596cbd57cd79
217,1,"""","""","""","""","""",sampler,151,197848,0.0-6.0-145.0,"""","""","""","""","""","""","""","""","""","""","""","""","2021-08-17 18:03:36",89.64.118.36,"Mozilla/5.0 (Windows NT 10.0; Win64; x64) AppleWebKit/537.36 (KHTML, like Gecko) Chrome/92.0.4515.159 Safari/537.36",WebKit,Chrome,92.0.4515.159,Windows,10.0,5f461dd6c139dd6b46c7596cbd57cd79
217,1,"""","""","""","""","""",sampler,152,197849,0.0-6.0-146.0,"""","""","""","""","""","""","""","""","""","""","""","""","2021-08-17 18:03:36",89.64.118.36,"Mozilla/5.0 (Windows NT 10.0; Win64; x64) AppleWebKit/537.36 (KHTML, like Gecko) Chrome/92.0.4515.159 Safari/537.36",WebKit,Chrome,92.0.4515.159,Windows,10.0,5f461dd6c139dd6b46c7596cbd57cd79
217,1,"""","""","""","""","""",sampler,153,197849,0.0-6.0-147.0,"""","""","""","""","""","""","""","""","""","""","""","""","2021-08-17 18:03:36",89.64.118.36,"Mozilla/5.0 (Windows NT 10.0; Win64; x64) AppleWebKit/537.36 (KHTML, like Gecko) Chrome/92.0.4515.159 Safari/537.36",WebKit,Chrome,92.0.4515.159,Windows,10.0,5f461dd6c139dd6b46c7596cbd57cd79
217,1,"""","""","""","""","""",sampler,154,197849,0.0-6.0-148.0,"""","""","""","""","""","""","""","""","""","""","""","""","2021-08-17 18:03:36",89.64.118.36,"Mozilla/5.0 (Windows NT 10.0; Win64; x64) AppleWebKit/537.36 (KHTML, like Gecko) Chrome/92.0.4515.159 Safari/537.36",WebKit,Chrome,92.0.4515.159,Windows,10.0,5f461dd6c139dd6b46c7596cbd57cd79
217,1,"""","""","""","""","""",sampler,155,197849,0.0-6.0-149.0,"""","""","""","""","""","""","""","""","""","""","""","""","2021-08-17 18:03:36",89.64.118.36,"Mozilla/5.0 (Windows NT 10.0; Win64; x64) AppleWebKit/537.36 (KHTML, like Gecko) Chrome/92.0.4515.159 Safari/537.36",WebKit,Chrome,92.0.4515.159,Windows,10.0,5f461dd6c139dd6b46c7596cbd57cd79
217,1,"""","""","""","""","""",sampler,156,197849,0.0-6.0-150.0,"""","""","""","""","""","""","""","""","""","""","""","""","2021-08-17 18:03:36",89.64.118.36,"Mozilla/5.0 (Windows NT 10.0; Win64; x64) AppleWebKit/537.36 (KHTML, like Gecko) Chrome/92.0.4515.159 Safari/537.36",WebKit,Chrome,92.0.4515.159,Windows,10.0,5f461dd6c139dd6b46c7596cbd57cd79
217,1,"""","""","""","""","""",sampler,157,197849,0.0-6.0-151.0,"""","""","""","""","""","""","""","""","""","""","""","""","2021-08-17 18:03:36",89.64.118.36,"Mozilla/5.0 (Windows NT 10.0; Win64; x64) AppleWebKit/537.36 (KHTML, like Gecko) Chrome/92.0.4515.159 Safari/537.36",WebKit,Chrome,92.0.4515.159,Windows,10.0,5f461dd6c139dd6b46c7596cbd57cd79
217,1,"""","""","""","""","""",sampler,158,197849,0.0-6.0-152.0,"""","""","""","""","""","""","""","""","""","""","""","""","2021-08-17 18:03:36",89.64.118.36,"Mozilla/5.0 (Windows NT 10.0; Win64; x64) AppleWebKit/537.36 (KHTML, like Gecko) Chrome/92.0.4515.159 Safari/537.36",WebKit,Chrome,92.0.4515.159,Windows,10.0,5f461dd6c139dd6b46c7596cbd57cd79
217,1,"""","""","""","""","""",sampler,159,197849,0.0-6.0-153.0,"""","""","""","""","""","""","""","""","""","""","""","""","2021-08-17 18:03:36",89.64.118.36,"Mozilla/5.0 (Windows NT 10.0; Win64; x64) AppleWebKit/537.36 (KHTML, like Gecko) Chrome/92.0.4515.159 Safari/537.36",WebKit,Chrome,92.0.4515.159,Windows,10.0,5f461dd6c139dd6b46c7596cbd57cd79
217,1,"""","""","""","""","""",sampler,160,197850,0.0-6.0-154.0,"""","""","""","""","""","""","""","""","""","""","""","""","2021-08-17 18:03:36",89.64.118.36,"Mozilla/5.0 (Windows NT 10.0; Win64; x64) AppleWebKit/537.36 (KHTML, like Gecko) Chrome/92.0.4515.159 Safari/537.36",WebKit,Chrome,92.0.4515.159,Windows,10.0,5f461dd6c139dd6b46c7596cbd57cd79
217,1,"""","""","""","""","""",sampler,161,197850,0.0-6.0-155.0,"""","""","""","""","""","""","""","""","""","""","""","""","2021-08-17 18:03:36",89.64.118.36,"Mozilla/5.0 (Windows NT 10.0; Win64; x64) AppleWebKit/537.36 (KHTML, like Gecko) Chrome/92.0.4515.159 Safari/537.36",WebKit,Chrome,92.0.4515.159,Windows,10.0,5f461dd6c139dd6b46c7596cbd57cd79
217,1,"""","""","""","""","""",sampler,162,197850,0.0-6.0-156.0,"""","""","""","""","""","""","""","""","""","""","""","""","2021-08-17 18:03:36",89.64.118.36,"Mozilla/5.0 (Windows NT 10.0; Win64; x64) AppleWebKit/537.36 (KHTML, like Gecko) Chrome/92.0.4515.159 Safari/537.36",WebKit,Chrome,92.0.4515.159,Windows,10.0,5f461dd6c139dd6b46c7596cbd57cd79
217,1,"""","""","""","""","""",sampler,163,197850,0.0-6.0-157.0,"""","""","""","""","""","""","""","""","""","""","""","""","2021-08-17 18:03:36",89.64.118.36,"Mozilla/5.0 (Windows NT 10.0; Win64; x64) AppleWebKit/537.36 (KHTML, like Gecko) Chrome/92.0.4515.159 Safari/537.36",WebKit,Chrome,92.0.4515.159,Windows,10.0,5f461dd6c139dd6b46c7596cbd57cd79
217,1,"""","""","""","""","""",sampler,164,197850,0.0-6.0-158.0,"""","""","""","""","""","""","""","""","""","""","""","""","2021-08-17 18:03:36",89.64.118.36,"Mozilla/5.0 (Windows NT 10.0; Win64; x64) AppleWebKit/537.36 (KHTML, like Gecko) Chrome/92.0.4515.159 Safari/537.36",WebKit,Chrome,92.0.4515.159,Windows,10.0,5f461dd6c139dd6b46c7596cbd57cd79
217,1,"""","""","""","""","""",sampler,165,197850,0.0-6.0-159.0,"""","""","""","""","""","""","""","""","""","""","""","""","2021-08-17 18:03:36",89.64.118.36,"Mozilla/5.0 (Windows NT 10.0; Win64; x64) AppleWebKit/537.36 (KHTML, like Gecko) Chrome/92.0.4515.159 Safari/537.36",WebKit,Chrome,92.0.4515.159,Windows,10.0,5f461dd6c139dd6b46c7596cbd57cd79
217,1,"""","""","""","""","""",sampler,166,197850,0.0-6.0-160.0,"""","""","""","""","""","""","""","""","""","""","""","""","2021-08-17 18:03:36",89.64.118.36,"Mozilla/5.0 (Windows NT 10.0; Win64; x64) AppleWebKit/537.36 (KHTML, like Gecko) Chrome/92.0.4515.159 Safari/537.36",WebKit,Chrome,92.0.4515.159,Windows,10.0,5f461dd6c139dd6b46c7596cbd57cd79
217,1,"""","""","""","""","""",sampler,167,197850,0.0-6.0-161.0,"""","""","""","""","""","""","""","""","""","""","""","""","2021-08-17 18:03:36",89.64.118.36,"Mozilla/5.0 (Windows NT 10.0; Win64; x64) AppleWebKit/537.36 (KHTML, like Gecko) Chrome/92.0.4515.159 Safari/537.36",WebKit,Chrome,92.0.4515.159,Windows,10.0,5f461dd6c139dd6b46c7596cbd57cd79
217,1,"""","""","""","""","""",sampler,168,197850,0.0-6.0-162.0,"""","""","""","""","""","""","""","""","""","""","""","""","2021-08-17 18:03:36",89.64.118.36,"Mozilla/5.0 (Windows NT 10.0; Win64; x64) AppleWebKit/537.36 (KHTML, like Gecko) Chrome/92.0.4515.159 Safari/537.36",WebKit,Chrome,92.0.4515.159,Windows,10.0,5f461dd6c139dd6b46c7596cbd57cd79
217,1,"""","""","""","""","""",sampler,169,197850,0.0-6.0-163.0,"""","""","""","""","""","""","""","""","""","""","""","""","2021-08-17 18:03:36",89.64.118.36,"Mozilla/5.0 (Windows NT 10.0; Win64; x64) AppleWebKit/537.36 (KHTML, like Gecko) Chrome/92.0.4515.159 Safari/537.36",WebKit,Chrome,92.0.4515.159,Windows,10.0,5f461dd6c139dd6b46c7596cbd57cd79
217,1,"""","""","""","""","""",sampler,170,197850,0.0-6.0-164.0,"""","""","""","""","""","""","""","""","""","""","""","""","2021-08-17 18:03:36",89.64.118.36,"Mozilla/5.0 (Windows NT 10.0; Win64; x64) AppleWebKit/537.36 (KHTML, like Gecko) Chrome/92.0.4515.159 Safari/537.36",WebKit,Chrome,92.0.4515.159,Windows,10.0,5f461dd6c139dd6b46c7596cbd57cd79
217,1,"""","""","""","""","""",sampler,171,197851,0.0-6.0-165.0,"""","""","""","""","""","""","""","""","""","""","""","""","2021-08-17 18:03:36",89.64.118.36,"Mozilla/5.0 (Windows NT 10.0; Win64; x64) AppleWebKit/537.36 (KHTML, like Gecko) Chrome/92.0.4515.159 Safari/537.36",WebKit,Chrome,92.0.4515.159,Windows,10.0,5f461dd6c139dd6b46c7596cbd57cd79
217,1,"""","""","""","""","""",sampler,172,197851,0.0-6.0-166.0,"""","""","""","""","""","""","""","""","""","""","""","""","2021-08-17 18:03:36",89.64.118.36,"Mozilla/5.0 (Windows NT 10.0; Win64; x64) AppleWebKit/537.36 (KHTML, like Gecko) Chrome/92.0.4515.159 Safari/537.36",WebKit,Chrome,92.0.4515.159,Windows,10.0,5f461dd6c139dd6b46c7596cbd57cd79
217,1,"""","""","""","""","""",sampler,173,197851,0.0-6.0-167.0,"""","""","""","""","""","""","""","""","""","""","""","""","2021-08-17 18:03:36",89.64.118.36,"Mozilla/5.0 (Windows NT 10.0; Win64; x64) AppleWebKit/537.36 (KHTML, like Gecko) Chrome/92.0.4515.159 Safari/537.36",WebKit,Chrome,92.0.4515.159,Windows,10.0,5f461dd6c139dd6b46c7596cbd57cd79
217,1,"""","""","""","""","""",sampler,174,197851,0.0-6.0-168.0,"""","""","""","""","""","""","""","""","""","""","""","""","2021-08-17 18:03:36",89.64.118.36,"Mozilla/5.0 (Windows NT 10.0; Win64; x64) AppleWebKit/537.36 (KHTML, like Gecko) Chrome/92.0.4515.159 Safari/537.36",WebKit,Chrome,92.0.4515.159,Windows,10.0,5f461dd6c139dd6b46c7596cbd57cd79
217,1,"""","""","""","""","""",sampler,175,197851,0.0-6.0-169.0,"""","""","""","""","""","""","""","""","""","""","""","""","2021-08-17 18:03:36",89.64.118.36,"Mozilla/5.0 (Windows NT 10.0; Win64; x64) AppleWebKit/537.36 (KHTML, like Gecko) Chrome/92.0.4515.159 Safari/537.36",WebKit,Chrome,92.0.4515.159,Windows,10.0,5f461dd6c139dd6b46c7596cbd57cd79
217,1,"""","""","""","""","""",sampler,176,197851,0.0-6.0-170.0,"""","""","""","""","""","""","""","""","""","""","""","""","2021-08-17 18:03:36",89.64.118.36,"Mozilla/5.0 (Windows NT 10.0; Win64; x64) AppleWebKit/537.36 (KHTML, like Gecko) Chrome/92.0.4515.159 Safari/537.36",WebKit,Chrome,92.0.4515.159,Windows,10.0,5f461dd6c139dd6b46c7596cbd57cd79
217,1,"""","""","""","""","""",sampler,177,197851,0.0-6.0-171.0,"""","""","""","""","""","""","""","""","""","""","""","""","2021-08-17 18:03:36",89.64.118.36,"Mozilla/5.0 (Windows NT 10.0; Win64; x64) AppleWebKit/537.36 (KHTML, like Gecko) Chrome/92.0.4515.159 Safari/537.36",WebKit,Chrome,92.0.4515.159,Windows,10.0,5f461dd6c139dd6b46c7596cbd57cd79
217,1,"""","""","""","""","""",sampler,178,197851,0.0-6.0-172.0,"""","""","""","""","""","""","""","""","""","""","""","""","2021-08-17 18:03:36",89.64.118.36,"Mozilla/5.0 (Windows NT 10.0; Win64; x64) AppleWebKit/537.36 (KHTML, like Gecko) Chrome/92.0.4515.159 Safari/537.36",WebKit,Chrome,92.0.4515.159,Windows,10.0,5f461dd6c139dd6b46c7596cbd57cd79
217,1,"""","""","""","""","""",sampler,179,197851,0.0-6.0-173.0,"""","""","""","""","""","""","""","""","""","""","""","""","2021-08-17 18:03:36",89.64.118.36,"Mozilla/5.0 (Windows NT 10.0; Win64; x64) AppleWebKit/537.36 (KHTML, like Gecko) Chrome/92.0.4515.159 Safari/537.36",WebKit,Chrome,92.0.4515.159,Windows,10.0,5f461dd6c139dd6b46c7596cbd57cd79
217,1,"""","""","""","""","""",sampler,180,197851,0.0-6.0-174.0,"""","""","""","""","""","""","""","""","""","""","""","""","2021-08-17 18:03:36",89.64.118.36,"Mozilla/5.0 (Windows NT 10.0; Win64; x64) AppleWebKit/537.36 (KHTML, like Gecko) Chrome/92.0.4515.159 Safari/537.36",WebKit,Chrome,92.0.4515.159,Windows,10.0,5f461dd6c139dd6b46c7596cbd57cd79
217,1,"""","""","""","""","""",sampler,181,197851,0.0-6.0-175.0,"""","""","""","""","""","""","""","""","""","""","""","""","2021-08-17 18:03:36",89.64.118.36,"Mozilla/5.0 (Windows NT 10.0; Win64; x64) AppleWebKit/537.36 (KHTML, like Gecko) Chrome/92.0.4515.159 Safari/537.36",WebKit,Chrome,92.0.4515.159,Windows,10.0,5f461dd6c139dd6b46c7596cbd57cd79
217,1,"""","""","""","""","""",sampler,182,197851,0.0-6.0-176.0,"""","""","""","""","""","""","""","""","""","""","""","""","2021-08-17 18:03:36",89.64.118.36,"Mozilla/5.0 (Windows NT 10.0; Win64; x64) AppleWebKit/537.36 (KHTML, like Gecko) Chrome/92.0.4515.159 Safari/537.36",WebKit,Chrome,92.0.4515.159,Windows,10.0,5f461dd6c139dd6b46c7596cbd57cd79
217,1,"""","""","""","""","""",sampler,183,197851,0.0-6.0-177.0,"""","""","""","""","""","""","""","""","""","""","""","""","2021-08-17 18:03:36",89.64.118.36,"Mozilla/5.0 (Windows NT 10.0; Win64; x64) AppleWebKit/537.36 (KHTML, like Gecko) Chrome/92.0.4515.159 Safari/537.36",WebKit,Chrome,92.0.4515.159,Windows,10.0,5f461dd6c139dd6b46c7596cbd57cd79
217,1,"""","""","""","""","""",sampler,184,197852,0.0-6.0-178.0,"""","""","""","""","""","""","""","""","""","""","""","""","2021-08-17 18:03:36",89.64.118.36,"Mozilla/5.0 (Windows NT 10.0; Win64; x64) AppleWebKit/537.36 (KHTML, like Gecko) Chrome/92.0.4515.159 Safari/537.36",WebKit,Chrome,92.0.4515.159,Windows,10.0,5f461dd6c139dd6b46c7596cbd57cd79
217,1,"""","""","""","""","""",sampler,185,197852,0.0-6.0-179.0,"""","""","""","""","""","""","""","""","""","""","""","""","2021-08-17 18:03:36",89.64.118.36,"Mozilla/5.0 (Windows NT 10.0; Win64; x64) AppleWebKit/537.36 (KHTML, like Gecko) Chrome/92.0.4515.159 Safari/537.36",WebKit,Chrome,92.0.4515.159,Windows,10.0,5f461dd6c139dd6b46c7596cbd57cd79
217,1,"""","""","""","""","""",sampler,186,197852,0.0-6.0-180.0,"""","""","""","""","""","""","""","""","""","""","""","""","2021-08-17 18:03:36",89.64.118.36,"Mozilla/5.0 (Windows NT 10.0; Win64; x64) AppleWebKit/537.36 (KHTML, like Gecko) Chrome/92.0.4515.159 Safari/537.36",WebKit,Chrome,92.0.4515.159,Windows,10.0,5f461dd6c139dd6b46c7596cbd57cd79
217,1,"""","""","""","""","""",sampler,187,197852,0.0-6.0-181.0,"""","""","""","""","""","""","""","""","""","""","""","""","2021-08-17 18:03:36",89.64.118.36,"Mozilla/5.0 (Windows NT 10.0; Win64; x64) AppleWebKit/537.36 (KHTML, like Gecko) Chrome/92.0.4515.159 Safari/537.36",WebKit,Chrome,92.0.4515.159,Windows,10.0,5f461dd6c139dd6b46c7596cbd57cd79
217,1,"""","""","""","""","""",sampler,188,197852,0.0-6.0-182.0,"""","""","""","""","""","""","""","""","""","""","""","""","2021-08-17 18:03:36",89.64.118.36,"Mozilla/5.0 (Windows NT 10.0; Win64; x64) AppleWebKit/537.36 (KHTML, like Gecko) Chrome/92.0.4515.159 Safari/537.36",WebKit,Chrome,92.0.4515.159,Windows,10.0,5f461dd6c139dd6b46c7596cbd57cd79
217,1,"""","""","""","""","""",sampler,189,197852,0.0-6.0-183.0,"""","""","""","""","""","""","""","""","""","""","""","""","2021-08-17 18:03:36",89.64.118.36,"Mozilla/5.0 (Windows NT 10.0; Win64; x64) AppleWebKit/537.36 (KHTML, like Gecko) Chrome/92.0.4515.159 Safari/537.36",WebKit,Chrome,92.0.4515.159,Windows,10.0,5f461dd6c139dd6b46c7596cbd57cd79
217,1,"""","""","""","""","""",sampler,190,197852,0.0-6.0-184.0,"""","""","""","""","""","""","""","""","""","""","""","""","2021-08-17 18:03:36",89.64.118.36,"Mozilla/5.0 (Windows NT 10.0; Win64; x64) AppleWebKit/537.36 (KHTML, like Gecko) Chrome/92.0.4515.159 Safari/537.36",WebKit,Chrome,92.0.4515.159,Windows,10.0,5f461dd6c139dd6b46c7596cbd57cd79
217,1,"""","""","""","""","""",sampler,191,197852,0.0-6.0-185.0,"""","""","""","""","""","""","""","""","""","""","""","""","2021-08-17 18:03:36",89.64.118.36,"Mozilla/5.0 (Windows NT 10.0; Win64; x64) AppleWebKit/537.36 (KHTML, like Gecko) Chrome/92.0.4515.159 Safari/537.36",WebKit,Chrome,92.0.4515.159,Windows,10.0,5f461dd6c139dd6b46c7596cbd57cd79
217,1,"""","""","""","""","""",sampler,192,197852,0.0-6.0-186.0,"""","""","""","""","""","""","""","""","""","""","""","""","2021-08-17 18:03:36",89.64.118.36,"Mozilla/5.0 (Windows NT 10.0; Win64; x64) AppleWebKit/537.36 (KHTML, like Gecko) Chrome/92.0.4515.159 Safari/537.36",WebKit,Chrome,92.0.4515.159,Windows,10.0,5f461dd6c139dd6b46c7596cbd57cd79
217,1,"""","""","""","""","""",sampler,193,197852,0.0-6.0-187.0,"""","""","""","""","""","""","""","""","""","""","""","""","2021-08-17 18:03:36",89.64.118.36,"Mozilla/5.0 (Windows NT 10.0; Win64; x64) AppleWebKit/537.36 (KHTML, like Gecko) Chrome/92.0.4515.159 Safari/537.36",WebKit,Chrome,92.0.4515.159,Windows,10.0,5f461dd6c139dd6b46c7596cbd57cd79
217,1,"""","""","""","""","""",sampler,194,197852,0.0-6.0-188.0,"""","""","""","""","""","""","""","""","""","""","""","""","2021-08-17 18:03:36",89.64.118.36,"Mozilla/5.0 (Windows NT 10.0; Win64; x64) AppleWebKit/537.36 (KHTML, like Gecko) Chrome/92.0.4515.159 Safari/537.36",WebKit,Chrome,92.0.4515.159,Windows,10.0,5f461dd6c139dd6b46c7596cbd57cd79
217,1,"""","""","""","""","""",sampler,195,197852,0.0-6.0-189.0,"""","""","""","""","""","""","""","""","""","""","""","""","2021-08-17 18:03:36",89.64.118.36,"Mozilla/5.0 (Windows NT 10.0; Win64; x64) AppleWebKit/537.36 (KHTML, like Gecko) Chrome/92.0.4515.159 Safari/537.36",WebKit,Chrome,92.0.4515.159,Windows,10.0,5f461dd6c139dd6b46c7596cbd57cd79
217,1,"""","""","""","""","""",sampler,196,197853,0.0-6.0-190.0,"""","""","""","""","""","""","""","""","""","""","""","""","2021-08-17 18:03:36",89.64.118.36,"Mozilla/5.0 (Windows NT 10.0; Win64; x64) AppleWebKit/537.36 (KHTML, like Gecko) Chrome/92.0.4515.159 Safari/537.36",WebKit,Chrome,92.0.4515.159,Windows,10.0,5f461dd6c139dd6b46c7596cbd57cd79
217,1,"""","""","""","""","""",sampler,197,197853,0.0-6.0-191.0,"""","""","""","""","""","""","""","""","""","""","""","""","2021-08-17 18:03:36",89.64.118.36,"Mozilla/5.0 (Windows NT 10.0; Win64; x64) AppleWebKit/537.36 (KHTML, like Gecko) Chrome/92.0.4515.159 Safari/537.36",WebKit,Chrome,92.0.4515.159,Windows,10.0,5f461dd6c139dd6b46c7596cbd57cd79
217,1,"""","""","""","""","""",sampler,198,197853,0.0-6.0-192.0,"""","""","""","""","""","""","""","""","""","""","""","""","2021-08-17 18:03:36",89.64.118.36,"Mozilla/5.0 (Windows NT 10.0; Win64; x64) AppleWebKit/537.36 (KHTML, like Gecko) Chrome/92.0.4515.159 Safari/537.36",WebKit,Chrome,92.0.4515.159,Windows,10.0,5f461dd6c139dd6b46c7596cbd57cd79
217,1,"""","""","""","""","""",sampler,199,197853,0.0-6.0-193.0,"""","""","""","""","""","""","""","""","""","""","""","""","2021-08-17 18:03:36",89.64.118.36,"Mozilla/5.0 (Windows NT 10.0; Win64; x64) AppleWebKit/537.36 (KHTML, like Gecko) Chrome/92.0.4515.159 Safari/537.36",WebKit,Chrome,92.0.4515.159,Windows,10.0,5f461dd6c139dd6b46c7596cbd57cd79
217,1,"""","""","""","""","""",sampler,200,197853,0.0-6.0-194.0,"""","""","""","""","""","""","""","""","""","""","""","""","2021-08-17 18:03:36",89.64.118.36,"Mozilla/5.0 (Windows NT 10.0; Win64; x64) AppleWebKit/537.36 (KHTML, like Gecko) Chrome/92.0.4515.159 Safari/537.36",WebKit,Chrome,92.0.4515.159,Windows,10.0,5f461dd6c139dd6b46c7596cbd57cd79
217,1,"""","""","""","""","""",sampler,201,197853,0.0-6.0-195.0,"""","""","""","""","""","""","""","""","""","""","""","""","2021-08-17 18:03:36",89.64.118.36,"Mozilla/5.0 (Windows NT 10.0; Win64; x64) AppleWebKit/537.36 (KHTML, like Gecko) Chrome/92.0.4515.159 Safari/537.36",WebKit,Chrome,92.0.4515.159,Windows,10.0,5f461dd6c139dd6b46c7596cbd57cd79
217,1,"""","""","""","""","""",sampler,202,197853,0.0-6.0-196.0,"""","""","""","""","""","""","""","""","""","""","""","""","2021-08-17 18:03:36",89.64.118.36,"Mozilla/5.0 (Windows NT 10.0; Win64; x64) AppleWebKit/537.36 (KHTML, like Gecko) Chrome/92.0.4515.159 Safari/537.36",WebKit,Chrome,92.0.4515.159,Windows,10.0,5f461dd6c139dd6b46c7596cbd57cd79
217,1,"""","""","""","""","""",sampler,203,197853,0.0-6.0-197.0,"""","""","""","""","""","""","""","""","""","""","""","""","2021-08-17 18:03:36",89.64.118.36,"Mozilla/5.0 (Windows NT 10.0; Win64; x64) AppleWebKit/537.36 (KHTML, like Gecko) Chrome/92.0.4515.159 Safari/537.36",WebKit,Chrome,92.0.4515.159,Windows,10.0,5f461dd6c139dd6b46c7596cbd57cd79
217,1,"""","""","""","""","""",sampler,204,197853,0.0-6.0-198.0,"""","""","""","""","""","""","""","""","""","""","""","""","2021-08-17 18:03:36",89.64.118.36,"Mozilla/5.0 (Windows NT 10.0; Win64; x64) AppleWebKit/537.36 (KHTML, like Gecko) Chrome/92.0.4515.159 Safari/537.36",WebKit,Chrome,92.0.4515.159,Windows,10.0,5f461dd6c139dd6b46c7596cbd57cd79
217,1,"""","""","""","""","""",sampler,205,197853,0.0-6.0-199.0,"""","""","""","""","""","""","""","""","""","""","""","""","2021-08-17 18:03:36",89.64.118.36,"Mozilla/5.0 (Windows NT 10.0; Win64; x64) AppleWebKit/537.36 (KHTML, like Gecko) Chrome/92.0.4515.159 Safari/537.36",WebKit,Chrome,92.0.4515.159,Windows,10.0,5f461dd6c139dd6b46c7596cbd57cd79
217,1,"""","""","""","""","""",sampler,206,197853,0.0-6.0-200.0,"""","""","""","""","""","""","""","""","""","""","""","""","2021-08-17 18:03:36",89.64.118.36,"Mozilla/5.0 (Windows NT 10.0; Win64; x64) AppleWebKit/537.36 (KHTML, like Gecko) Chrome/92.0.4515.159 Safari/537.36",WebKit,Chrome,92.0.4515.159,Windows,10.0,5f461dd6c139dd6b46c7596cbd57cd79
217,1,"""","""","""","""","""",sampler,207,197853,0.0-6.0-201.0,"""","""","""","""","""","""","""","""","""","""","""","""","2021-08-17 18:03:36",89.64.118.36,"Mozilla/5.0 (Windows NT 10.0; Win64; x64) AppleWebKit/537.36 (KHTML, like Gecko) Chrome/92.0.4515.159 Safari/537.36",WebKit,Chrome,92.0.4515.159,Windows,10.0,5f461dd6c139dd6b46c7596cbd57cd79
217,1,"""","""","""","""","""",sampler,208,197854,0.0-6.0-202.0,"""","""","""","""","""","""","""","""","""","""","""","""","2021-08-17 18:03:36",89.64.118.36,"Mozilla/5.0 (Windows NT 10.0; Win64; x64) AppleWebKit/537.36 (KHTML, like Gecko) Chrome/92.0.4515.159 Safari/537.36",WebKit,Chrome,92.0.4515.159,Windows,10.0,5f461dd6c139dd6b46c7596cbd57cd79
217,1,"""","""","""","""","""",sampler,209,197854,0.0-6.0-203.0,"""","""","""","""","""","""","""","""","""","""","""","""","2021-08-17 18:03:36",89.64.118.36,"Mozilla/5.0 (Windows NT 10.0; Win64; x64) AppleWebKit/537.36 (KHTML, like Gecko) Chrome/92.0.4515.159 Safari/537.36",WebKit,Chrome,92.0.4515.159,Windows,10.0,5f461dd6c139dd6b46c7596cbd57cd79
217,1,"""","""","""","""","""",sampler,210,197854,0.0-6.0-204.0,"""","""","""","""","""","""","""","""","""","""","""","""","2021-08-17 18:03:36",89.64.118.36,"Mozilla/5.0 (Windows NT 10.0; Win64; x64) AppleWebKit/537.36 (KHTML, like Gecko) Chrome/92.0.4515.159 Safari/537.36",WebKit,Chrome,92.0.4515.159,Windows,10.0,5f461dd6c139dd6b46c7596cbd57cd79
217,1,"""","""","""","""","""",sampler,211,197854,0.0-6.0-205.0,"""","""","""","""","""","""","""","""","""","""","""","""","2021-08-17 18:03:36",89.64.118.36,"Mozilla/5.0 (Windows NT 10.0; Win64; x64) AppleWebKit/537.36 (KHTML, like Gecko) Chrome/92.0.4515.159 Safari/537.36",WebKit,Chrome,92.0.4515.159,Windows,10.0,5f461dd6c139dd6b46c7596cbd57cd79
217,1,"""","""","""","""","""",sampler,212,197854,0.0-6.0-206.0,"""","""","""","""","""","""","""","""","""","""","""","""","2021-08-17 18:03:36",89.64.118.36,"Mozilla/5.0 (Windows NT 10.0; Win64; x64) AppleWebKit/537.36 (KHTML, like Gecko) Chrome/92.0.4515.159 Safari/537.36",WebKit,Chrome,92.0.4515.159,Windows,10.0,5f461dd6c139dd6b46c7596cbd57cd79
217,1,"""","""","""","""","""",sampler,213,197854,0.0-6.0-207.0,"""","""","""","""","""","""","""","""","""","""","""","""","2021-08-17 18:03:36",89.64.118.36,"Mozilla/5.0 (Windows NT 10.0; Win64; x64) AppleWebKit/537.36 (KHTML, like Gecko) Chrome/92.0.4515.159 Safari/537.36",WebKit,Chrome,92.0.4515.159,Windows,10.0,5f461dd6c139dd6b46c7596cbd57cd79
217,1,"""","""","""","""","""",sampler,214,197854,0.0-6.0-208.0,"""","""","""","""","""","""","""","""","""","""","""","""","2021-08-17 18:03:36",89.64.118.36,"Mozilla/5.0 (Windows NT 10.0; Win64; x64) AppleWebKit/537.36 (KHTML, like Gecko) Chrome/92.0.4515.159 Safari/537.36",WebKit,Chrome,92.0.4515.159,Windows,10.0,5f461dd6c139dd6b46c7596cbd57cd79
217,1,"""","""","""","""","""",sampler,215,197854,0.0-6.0-209.0,"""","""","""","""","""","""","""","""","""","""","""","""","2021-08-17 18:03:36",89.64.118.36,"Mozilla/5.0 (Windows NT 10.0; Win64; x64) AppleWebKit/537.36 (KHTML, like Gecko) Chrome/92.0.4515.159 Safari/537.36",WebKit,Chrome,92.0.4515.159,Windows,10.0,5f461dd6c139dd6b46c7596cbd57cd79
217,1,"""","""","""","""","""",sampler,216,197854,0.0-6.0-210.0,"""","""","""","""","""","""","""","""","""","""","""","""","2021-08-17 18:03:36",89.64.118.36,"Mozilla/5.0 (Windows NT 10.0; Win64; x64) AppleWebKit/537.36 (KHTML, like Gecko) Chrome/92.0.4515.159 Safari/537.36",WebKit,Chrome,92.0.4515.159,Windows,10.0,5f461dd6c139dd6b46c7596cbd57cd79
217,1,"""","""","""","""","""",sampler,217,197854,0.0-6.0-211.0,"""","""","""","""","""","""","""","""","""","""","""","""","2021-08-17 18:03:36",89.64.118.36,"Mozilla/5.0 (Windows NT 10.0; Win64; x64) AppleWebKit/537.36 (KHTML, like Gecko) Chrome/92.0.4515.159 Safari/537.36",WebKit,Chrome,92.0.4515.159,Windows,10.0,5f461dd6c139dd6b46c7596cbd57cd79
217,1,"""","""","""","""","""",sampler,218,197854,0.0-6.0-212.0,"""","""","""","""","""","""","""","""","""","""","""","""","2021-08-17 18:03:36",89.64.118.36,"Mozilla/5.0 (Windows NT 10.0; Win64; x64) AppleWebKit/537.36 (KHTML, like Gecko) Chrome/92.0.4515.159 Safari/537.36",WebKit,Chrome,92.0.4515.159,Windows,10.0,5f461dd6c139dd6b46c7596cbd57cd79
217,1,"""","""","""","""","""",sampler,219,197854,0.0-6.0-213.0,"""","""","""","""","""","""","""","""","""","""","""","""","2021-08-17 18:03:36",89.64.118.36,"Mozilla/5.0 (Windows NT 10.0; Win64; x64) AppleWebKit/537.36 (KHTML, like Gecko) Chrome/92.0.4515.159 Safari/537.36",WebKit,Chrome,92.0.4515.159,Windows,10.0,5f461dd6c139dd6b46c7596cbd57cd79
217,1,"""","""","""","""","""",sampler,220,197855,0.0-6.0-214.0,"""","""","""","""","""","""","""","""","""","""","""","""","2021-08-17 18:03:36",89.64.118.36,"Mozilla/5.0 (Windows NT 10.0; Win64; x64) AppleWebKit/537.36 (KHTML, like Gecko) Chrome/92.0.4515.159 Safari/537.36",WebKit,Chrome,92.0.4515.159,Windows,10.0,5f461dd6c139dd6b46c7596cbd57cd79
217,1,"""","""","""","""","""",sampler,221,197855,0.0-6.0-215.0,"""","""","""","""","""","""","""","""","""","""","""","""","2021-08-17 18:03:36",89.64.118.36,"Mozilla/5.0 (Windows NT 10.0; Win64; x64) AppleWebKit/537.36 (KHTML, like Gecko) Chrome/92.0.4515.159 Safari/537.36",WebKit,Chrome,92.0.4515.159,Windows,10.0,5f461dd6c139dd6b46c7596cbd57cd79
217,1,"""","""","""","""","""",sampler,222,197855,0.0-6.0-216.0,"""","""","""","""","""","""","""","""","""","""","""","""","2021-08-17 18:03:36",89.64.118.36,"Mozilla/5.0 (Windows NT 10.0; Win64; x64) AppleWebKit/537.36 (KHTML, like Gecko) Chrome/92.0.4515.159 Safari/537.36",WebKit,Chrome,92.0.4515.159,Windows,10.0,5f461dd6c139dd6b46c7596cbd57cd79
217,1,"""","""","""","""","""",sampler,223,197855,0.0-6.0-217.0,"""","""","""","""","""","""","""","""","""","""","""","""","2021-08-17 18:03:36",89.64.118.36,"Mozilla/5.0 (Windows NT 10.0; Win64; x64) AppleWebKit/537.36 (KHTML, like Gecko) Chrome/92.0.4515.159 Safari/537.36",WebKit,Chrome,92.0.4515.159,Windows,10.0,5f461dd6c139dd6b46c7596cbd57cd79
217,1,"""","""","""","""","""",sampler,224,197855,0.0-6.0-218.0,"""","""","""","""","""","""","""","""","""","""","""","""","2021-08-17 18:03:36",89.64.118.36,"Mozilla/5.0 (Windows NT 10.0; Win64; x64) AppleWebKit/537.36 (KHTML, like Gecko) Chrome/92.0.4515.159 Safari/537.36",WebKit,Chrome,92.0.4515.159,Windows,10.0,5f461dd6c139dd6b46c7596cbd57cd79
217,1,"""","""","""","""","""",sampler,225,197855,0.0-6.0-219.0,"""","""","""","""","""","""","""","""","""","""","""","""","2021-08-17 18:03:36",89.64.118.36,"Mozilla/5.0 (Windows NT 10.0; Win64; x64) AppleWebKit/537.36 (KHTML, like Gecko) Chrome/92.0.4515.159 Safari/537.36",WebKit,Chrome,92.0.4515.159,Windows,10.0,5f461dd6c139dd6b46c7596cbd57cd79
217,1,"""","""","""","""","""",sampler,226,197855,0.0-6.0-220.0,"""","""","""","""","""","""","""","""","""","""","""","""","2021-08-17 18:03:36",89.64.118.36,"Mozilla/5.0 (Windows NT 10.0; Win64; x64) AppleWebKit/537.36 (KHTML, like Gecko) Chrome/92.0.4515.159 Safari/537.36",WebKit,Chrome,92.0.4515.159,Windows,10.0,5f461dd6c139dd6b46c7596cbd57cd79
217,1,"""","""","""","""","""",sampler,227,197855,0.0-6.0-221.0,"""","""","""","""","""","""","""","""","""","""","""","""","2021-08-17 18:03:36",89.64.118.36,"Mozilla/5.0 (Windows NT 10.0; Win64; x64) AppleWebKit/537.36 (KHTML, like Gecko) Chrome/92.0.4515.159 Safari/537.36",WebKit,Chrome,92.0.4515.159,Windows,10.0,5f461dd6c139dd6b46c7596cbd57cd79
217,1,"""","""","""","""","""",sampler,228,197855,0.0-6.0-222.0,"""","""","""","""","""","""","""","""","""","""","""","""","2021-08-17 18:03:36",89.64.118.36,"Mozilla/5.0 (Windows NT 10.0; Win64; x64) AppleWebKit/537.36 (KHTML, like Gecko) Chrome/92.0.4515.159 Safari/537.36",WebKit,Chrome,92.0.4515.159,Windows,10.0,5f461dd6c139dd6b46c7596cbd57cd79
217,1,"""","""","""","""","""",sampler,229,197855,0.0-6.0-223.0,"""","""","""","""","""","""","""","""","""","""","""","""","2021-08-17 18:03:36",89.64.118.36,"Mozilla/5.0 (Windows NT 10.0; Win64; x64) AppleWebKit/537.36 (KHTML, like Gecko) Chrome/92.0.4515.159 Safari/537.36",WebKit,Chrome,92.0.4515.159,Windows,10.0,5f461dd6c139dd6b46c7596cbd57cd79
217,1,"""","""","""","""","""",sampler,230,197855,0.0-6.0-224.0,"""","""","""","""","""","""","""","""","""","""","""","""","2021-08-17 18:03:36",89.64.118.36,"Mozilla/5.0 (Windows NT 10.0; Win64; x64) AppleWebKit/537.36 (KHTML, like Gecko) Chrome/92.0.4515.159 Safari/537.36",WebKit,Chrome,92.0.4515.159,Windows,10.0,5f461dd6c139dd6b46c7596cbd57cd79
217,1,"""","""","""","""","""",sampler,231,197855,0.0-6.0-225.0,"""","""","""","""","""","""","""","""","""","""","""","""","2021-08-17 18:03:36",89.64.118.36,"Mozilla/5.0 (Windows NT 10.0; Win64; x64) AppleWebKit/537.36 (KHTML, like Gecko) Chrome/92.0.4515.159 Safari/537.36",WebKit,Chrome,92.0.4515.159,Windows,10.0,5f461dd6c139dd6b46c7596cbd57cd79
217,1,"""","""","""","""","""",sampler,232,197856,0.0-6.0-226.0,"""","""","""","""","""","""","""","""","""","""","""","""","2021-08-17 18:03:36",89.64.118.36,"Mozilla/5.0 (Windows NT 10.0; Win64; x64) AppleWebKit/537.36 (KHTML, like Gecko) Chrome/92.0.4515.159 Safari/537.36",WebKit,Chrome,92.0.4515.159,Windows,10.0,5f461dd6c139dd6b46c7596cbd57cd79
217,1,"""","""","""","""","""",sampler,233,197856,0.0-6.0-227.0,"""","""","""","""","""","""","""","""","""","""","""","""","2021-08-17 18:03:36",89.64.118.36,"Mozilla/5.0 (Windows NT 10.0; Win64; x64) AppleWebKit/537.36 (KHTML, like Gecko) Chrome/92.0.4515.159 Safari/537.36",WebKit,Chrome,92.0.4515.159,Windows,10.0,5f461dd6c139dd6b46c7596cbd57cd79
217,1,"""","""","""","""","""",sampler,234,197857,0.0-6.0-228.0,"""","""","""","""","""","""","""","""","""","""","""","""","2021-08-17 18:03:36",89.64.118.36,"Mozilla/5.0 (Windows NT 10.0; Win64; x64) AppleWebKit/537.36 (KHTML, like Gecko) Chrome/92.0.4515.159 Safari/537.36",WebKit,Chrome,92.0.4515.159,Windows,10.0,5f461dd6c139dd6b46c7596cbd57cd79
217,1,"""","""","""","""","""",sampler,235,197857,0.0-6.0-229.0,"""","""","""","""","""","""","""","""","""","""","""","""","2021-08-17 18:03:36",89.64.118.36,"Mozilla/5.0 (Windows NT 10.0; Win64; x64) AppleWebKit/537.36 (KHTML, like Gecko) Chrome/92.0.4515.159 Safari/537.36",WebKit,Chrome,92.0.4515.159,Windows,10.0,5f461dd6c139dd6b46c7596cbd57cd79
217,1,"""","""","""","""","""",sampler,236,197857,0.0-6.0-230.0,"""","""","""","""","""","""","""","""","""","""","""","""","2021-08-17 18:03:36",89.64.118.36,"Mozilla/5.0 (Windows NT 10.0; Win64; x64) AppleWebKit/537.36 (KHTML, like Gecko) Chrome/92.0.4515.159 Safari/537.36",WebKit,Chrome,92.0.4515.159,Windows,10.0,5f461dd6c139dd6b46c7596cbd57cd79
217,1,"""","""","""","""","""",sampler,237,197857,0.0-6.0-231.0,"""","""","""","""","""","""","""","""","""","""","""","""","2021-08-17 18:03:36",89.64.118.36,"Mozilla/5.0 (Windows NT 10.0; Win64; x64) AppleWebKit/537.36 (KHTML, like Gecko) Chrome/92.0.4515.159 Safari/537.36",WebKit,Chrome,92.0.4515.159,Windows,10.0,5f461dd6c139dd6b46c7596cbd57cd79
217,1,"""","""","""","""","""",sampler,238,197857,0.0-6.0-232.0,"""","""","""","""","""","""","""","""","""","""","""","""","2021-08-17 18:03:36",89.64.118.36,"Mozilla/5.0 (Windows NT 10.0; Win64; x64) AppleWebKit/537.36 (KHTML, like Gecko) Chrome/92.0.4515.159 Safari/537.36",WebKit,Chrome,92.0.4515.159,Windows,10.0,5f461dd6c139dd6b46c7596cbd57cd79
217,1,"""","""","""","""","""",sampler,239,197857,0.0-6.0-233.0,"""","""","""","""","""","""","""","""","""","""","""","""","2021-08-17 18:03:36",89.64.118.36,"Mozilla/5.0 (Windows NT 10.0; Win64; x64) AppleWebKit/537.36 (KHTML, like Gecko) Chrome/92.0.4515.159 Safari/537.36",WebKit,Chrome,92.0.4515.159,Windows,10.0,5f461dd6c139dd6b46c7596cbd57cd79
217,1,"""","""","""","""","""",sampler,240,197857,0.0-6.0-234.0,"""","""","""","""","""","""","""","""","""","""","""","""","2021-08-17 18:03:36",89.64.118.36,"Mozilla/5.0 (Windows NT 10.0; Win64; x64) AppleWebKit/537.36 (KHTML, like Gecko) Chrome/92.0.4515.159 Safari/537.36",WebKit,Chrome,92.0.4515.159,Windows,10.0,5f461dd6c139dd6b46c7596cbd57cd79
217,1,"""","""","""","""","""",sampler,241,197857,0.0-6.0-235.0,"""","""","""","""","""","""","""","""","""","""","""","""","2021-08-17 18:03:36",89.64.118.36,"Mozilla/5.0 (Windows NT 10.0; Win64; x64) AppleWebKit/537.36 (KHTML, like Gecko) Chrome/92.0.4515.159 Safari/537.36",WebKit,Chrome,92.0.4515.159,Windows,10.0,5f461dd6c139dd6b46c7596cbd57cd79
217,1,"""","""","""","""","""",sampler,242,197857,0.0-6.0-236.0,"""","""","""","""","""","""","""","""","""","""","""","""","2021-08-17 18:03:36",89.64.118.36,"Mozilla/5.0 (Windows NT 10.0; Win64; x64) AppleWebKit/537.36 (KHTML, like Gecko) Chrome/92.0.4515.159 Safari/537.36",WebKit,Chrome,92.0.4515.159,Windows,10.0,5f461dd6c139dd6b46c7596cbd57cd79
217,1,"""","""","""","""","""",sampler,243,197857,0.0-6.0-237.0,"""","""","""","""","""","""","""","""","""","""","""","""","2021-08-17 18:03:36",89.64.118.36,"Mozilla/5.0 (Windows NT 10.0; Win64; x64) AppleWebKit/537.36 (KHTML, like Gecko) Chrome/92.0.4515.159 Safari/537.36",WebKit,Chrome,92.0.4515.159,Windows,10.0,5f461dd6c139dd6b46c7596cbd57cd79
217,1,"""","""","""","""","""",sampler,244,197857,0.0-6.0-238.0,"""","""","""","""","""","""","""","""","""","""","""","""","2021-08-17 18:03:36",89.64.118.36,"Mozilla/5.0 (Windows NT 10.0; Win64; x64) AppleWebKit/537.36 (KHTML, like Gecko) Chrome/92.0.4515.159 Safari/537.36",WebKit,Chrome,92.0.4515.159,Windows,10.0,5f461dd6c139dd6b46c7596cbd57cd79
217,1,"""","""","""","""","""",sampler,245,197858,0.0-6.0-239.0,"""","""","""","""","""","""","""","""","""","""","""","""","2021-08-17 18:03:36",89.64.118.36,"Mozilla/5.0 (Windows NT 10.0; Win64; x64) AppleWebKit/537.36 (KHTML, like Gecko) Chrome/92.0.4515.159 Safari/537.36",WebKit,Chrome,92.0.4515.159,Windows,10.0,5f461dd6c139dd6b46c7596cbd57cd79
217,1,"""","""","""","""","""",sampler,246,197858,0.0-6.0-240.0,"""","""","""","""","""","""","""","""","""","""","""","""","2021-08-17 18:03:36",89.64.118.36,"Mozilla/5.0 (Windows NT 10.0; Win64; x64) AppleWebKit/537.36 (KHTML, like Gecko) Chrome/92.0.4515.159 Safari/537.36",WebKit,Chrome,92.0.4515.159,Windows,10.0,5f461dd6c139dd6b46c7596cbd57cd79
217,1,"""","""","""","""","""",sampler,247,197858,0.0-6.0-241.0,"""","""","""","""","""","""","""","""","""","""","""","""","2021-08-17 18:03:36",89.64.118.36,"Mozilla/5.0 (Windows NT 10.0; Win64; x64) AppleWebKit/537.36 (KHTML, like Gecko) Chrome/92.0.4515.159 Safari/537.36",WebKit,Chrome,92.0.4515.159,Windows,10.0,5f461dd6c139dd6b46c7596cbd57cd79
217,1,"""","""","""","""","""",sampler,248,197858,0.0-6.0-242.0,"""","""","""","""","""","""","""","""","""","""","""","""","2021-08-17 18:03:36",89.64.118.36,"Mozilla/5.0 (Windows NT 10.0; Win64; x64) AppleWebKit/537.36 (KHTML, like Gecko) Chrome/92.0.4515.159 Safari/537.36",WebKit,Chrome,92.0.4515.159,Windows,10.0,5f461dd6c139dd6b46c7596cbd57cd79
217,1,"""","""","""","""","""",sampler,249,197858,0.0-6.0-243.0,"""","""","""","""","""","""","""","""","""","""","""","""","2021-08-17 18:03:36",89.64.118.36,"Mozilla/5.0 (Windows NT 10.0; Win64; x64) AppleWebKit/537.36 (KHTML, like Gecko) Chrome/92.0.4515.159 Safari/537.36",WebKit,Chrome,92.0.4515.159,Windows,10.0,5f461dd6c139dd6b46c7596cbd57cd79
217,1,"""","""","""","""","""",sampler,250,197858,0.0-6.0-244.0,"""","""","""","""","""","""","""","""","""","""","""","""","2021-08-17 18:03:36",89.64.118.36,"Mozilla/5.0 (Windows NT 10.0; Win64; x64) AppleWebKit/537.36 (KHTML, like Gecko) Chrome/92.0.4515.159 Safari/537.36",WebKit,Chrome,92.0.4515.159,Windows,10.0,5f461dd6c139dd6b46c7596cbd57cd79
217,1,"""","""","""","""","""",sampler,251,197858,0.0-6.0-245.0,"""","""","""","""","""","""","""","""","""","""","""","""","2021-08-17 18:03:36",89.64.118.36,"Mozilla/5.0 (Windows NT 10.0; Win64; x64) AppleWebKit/537.36 (KHTML, like Gecko) Chrome/92.0.4515.159 Safari/537.36",WebKit,Chrome,92.0.4515.159,Windows,10.0,5f461dd6c139dd6b46c7596cbd57cd79
217,1,"""","""","""","""","""",sampler,252,197858,0.0-6.0-246.0,"""","""","""","""","""","""","""","""","""","""","""","""","2021-08-17 18:03:36",89.64.118.36,"Mozilla/5.0 (Windows NT 10.0; Win64; x64) AppleWebKit/537.36 (KHTML, like Gecko) Chrome/92.0.4515.159 Safari/537.36",WebKit,Chrome,92.0.4515.159,Windows,10.0,5f461dd6c139dd6b46c7596cbd57cd79
217,1,"""","""","""","""","""",sampler,253,197858,0.0-6.0-247.0,"""","""","""","""","""","""","""","""","""","""","""","""","2021-08-17 18:03:36",89.64.118.36,"Mozilla/5.0 (Windows NT 10.0; Win64; x64) AppleWebKit/537.36 (KHTML, like Gecko) Chrome/92.0.4515.159 Safari/537.36",WebKit,Chrome,92.0.4515.159,Windows,10.0,5f461dd6c139dd6b46c7596cbd57cd79
217,1,"""","""","""","""","""",sampler,254,197858,0.0-6.0-248.0,"""","""","""","""","""","""","""","""","""","""","""","""","2021-08-17 18:03:36",89.64.118.36,"Mozilla/5.0 (Windows NT 10.0; Win64; x64) AppleWebKit/537.36 (KHTML, like Gecko) Chrome/92.0.4515.159 Safari/537.36",WebKit,Chrome,92.0.4515.159,Windows,10.0,5f461dd6c139dd6b46c7596cbd57cd79
217,1,"""","""","""","""","""",sampler,255,197858,0.0-6.0-249.0,"""","""","""","""","""","""","""","""","""","""","""","""","2021-08-17 18:03:36",89.64.118.36,"Mozilla/5.0 (Windows NT 10.0; Win64; x64) AppleWebKit/537.36 (KHTML, like Gecko) Chrome/92.0.4515.159 Safari/537.36",WebKit,Chrome,92.0.4515.159,Windows,10.0,5f461dd6c139dd6b46c7596cbd57cd79
217,1,"""","""","""","""","""",sampler,256,197858,0.0-6.0-250.0,"""","""","""","""","""","""","""","""","""","""","""","""","2021-08-17 18:03:36",89.64.118.36,"Mozilla/5.0 (Windows NT 10.0; Win64; x64) AppleWebKit/537.36 (KHTML, like Gecko) Chrome/92.0.4515.159 Safari/537.36",WebKit,Chrome,92.0.4515.159,Windows,10.0,5f461dd6c139dd6b46c7596cbd57cd79
217,1,"""","""","""","""","""",sampler,257,197859,0.0-6.0-251.0,"""","""","""","""","""","""","""","""","""","""","""","""","2021-08-17 18:03:36",89.64.118.36,"Mozilla/5.0 (Windows NT 10.0; Win64; x64) AppleWebKit/537.36 (KHTML, like Gecko) Chrome/92.0.4515.159 Safari/537.36",WebKit,Chrome,92.0.4515.159,Windows,10.0,5f461dd6c139dd6b46c7596cbd57cd79
217,1,"""","""","""","""","""",sampler,258,197859,0.0-6.0-252.0,"""","""","""","""","""","""","""","""","""","""","""","""","2021-08-17 18:03:36",89.64.118.36,"Mozilla/5.0 (Windows NT 10.0; Win64; x64) AppleWebKit/537.36 (KHTML, like Gecko) Chrome/92.0.4515.159 Safari/537.36",WebKit,Chrome,92.0.4515.159,Windows,10.0,5f461dd6c139dd6b46c7596cbd57cd79
217,1,"""","""","""","""","""",sampler,259,197859,0.0-6.0-253.0,"""","""","""","""","""","""","""","""","""","""","""","""","2021-08-17 18:03:36",89.64.118.36,"Mozilla/5.0 (Windows NT 10.0; Win64; x64) AppleWebKit/537.36 (KHTML, like Gecko) Chrome/92.0.4515.159 Safari/537.36",WebKit,Chrome,92.0.4515.159,Windows,10.0,5f461dd6c139dd6b46c7596cbd57cd79
217,1,"""","""","""","""","""",sampler,260,197859,0.0-6.0-254.0,"""","""","""","""","""","""","""","""","""","""","""","""","2021-08-17 18:03:36",89.64.118.36,"Mozilla/5.0 (Windows NT 10.0; Win64; x64) AppleWebKit/537.36 (KHTML, like Gecko) Chrome/92.0.4515.159 Safari/537.36",WebKit,Chrome,92.0.4515.159,Windows,10.0,5f461dd6c139dd6b46c7596cbd57cd79
217,1,"""","""","""","""","""",sampler,261,197859,0.0-6.0-255.0,"""","""","""","""","""","""","""","""","""","""","""","""","2021-08-17 18:03:36",89.64.118.36,"Mozilla/5.0 (Windows NT 10.0; Win64; x64) AppleWebKit/537.36 (KHTML, like Gecko) Chrome/92.0.4515.159 Safari/537.36",WebKit,Chrome,92.0.4515.159,Windows,10.0,5f461dd6c139dd6b46c7596cbd57cd79
217,1,"""","""","""","""","""",sampler,262,197859,0.0-6.0-256.0,"""","""","""","""","""","""","""","""","""","""","""","""","2021-08-17 18:03:36",89.64.118.36,"Mozilla/5.0 (Windows NT 10.0; Win64; x64) AppleWebKit/537.36 (KHTML, like Gecko) Chrome/92.0.4515.159 Safari/537.36",WebKit,Chrome,92.0.4515.159,Windows,10.0,5f461dd6c139dd6b46c7596cbd57cd79
217,1,"""","""","""","""","""",sampler,263,197859,0.0-6.0-257.0,"""","""","""","""","""","""","""","""","""","""","""","""","2021-08-17 18:03:36",89.64.118.36,"Mozilla/5.0 (Windows NT 10.0; Win64; x64) AppleWebKit/537.36 (KHTML, like Gecko) Chrome/92.0.4515.159 Safari/537.36",WebKit,Chrome,92.0.4515.159,Windows,10.0,5f461dd6c139dd6b46c7596cbd57cd79
217,1,"""","""","""","""","""",sampler,264,197859,0.0-6.0-258.0,"""","""","""","""","""","""","""","""","""","""","""","""","2021-08-17 18:03:36",89.64.118.36,"Mozilla/5.0 (Windows NT 10.0; Win64; x64) AppleWebKit/537.36 (KHTML, like Gecko) Chrome/92.0.4515.159 Safari/537.36",WebKit,Chrome,92.0.4515.159,Windows,10.0,5f461dd6c139dd6b46c7596cbd57cd79
217,1,"""","""","""","""","""",sampler,265,197859,0.0-6.0-259.0,"""","""","""","""","""","""","""","""","""","""","""","""","2021-08-17 18:03:36",89.64.118.36,"Mozilla/5.0 (Windows NT 10.0; Win64; x64) AppleWebKit/537.36 (KHTML, like Gecko) Chrome/92.0.4515.159 Safari/537.36",WebKit,Chrome,92.0.4515.159,Windows,10.0,5f461dd6c139dd6b46c7596cbd57cd79
217,1,"""","""","""","""","""",sampler,266,197859,0.0-6.0-260.0,"""","""","""","""","""","""","""","""","""","""","""","""","2021-08-17 18:03:36",89.64.118.36,"Mozilla/5.0 (Windows NT 10.0; Win64; x64) AppleWebKit/537.36 (KHTML, like Gecko) Chrome/92.0.4515.159 Safari/537.36",WebKit,Chrome,92.0.4515.159,Windows,10.0,5f461dd6c139dd6b46c7596cbd57cd79
217,1,"""","""","""","""","""",sampler,267,197859,0.0-6.0-261.0,"""","""","""","""","""","""","""","""","""","""","""","""","2021-08-17 18:03:36",89.64.118.36,"Mozilla/5.0 (Windows NT 10.0; Win64; x64) AppleWebKit/537.36 (KHTML, like Gecko) Chrome/92.0.4515.159 Safari/537.36",WebKit,Chrome,92.0.4515.159,Windows,10.0,5f461dd6c139dd6b46c7596cbd57cd79
217,1,"""","""","""","""","""",sampler,268,197860,0.0-6.0-262.0,"""","""","""","""","""","""","""","""","""","""","""","""","2021-08-17 18:03:36",89.64.118.36,"Mozilla/5.0 (Windows NT 10.0; Win64; x64) AppleWebKit/537.36 (KHTML, like Gecko) Chrome/92.0.4515.159 Safari/537.36",WebKit,Chrome,92.0.4515.159,Windows,10.0,5f461dd6c139dd6b46c7596cbd57cd79
217,1,"""","""","""","""","""",sampler,269,197860,0.0-6.0-263.0,"""","""","""","""","""","""","""","""","""","""","""","""","2021-08-17 18:03:36",89.64.118.36,"Mozilla/5.0 (Windows NT 10.0; Win64; x64) AppleWebKit/537.36 (KHTML, like Gecko) Chrome/92.0.4515.159 Safari/537.36",WebKit,Chrome,92.0.4515.159,Windows,10.0,5f461dd6c139dd6b46c7596cbd57cd79
217,1,"""","""","""","""","""",sampler,270,197860,0.0-6.0-264.0,"""","""","""","""","""","""","""","""","""","""","""","""","2021-08-17 18:03:36",89.64.118.36,"Mozilla/5.0 (Windows NT 10.0; Win64; x64) AppleWebKit/537.36 (KHTML, like Gecko) Chrome/92.0.4515.159 Safari/537.36",WebKit,Chrome,92.0.4515.159,Windows,10.0,5f461dd6c139dd6b46c7596cbd57cd79
217,1,"""","""","""","""","""",sampler,271,197860,0.0-6.0-265.0,"""","""","""","""","""","""","""","""","""","""","""","""","2021-08-17 18:03:36",89.64.118.36,"Mozilla/5.0 (Windows NT 10.0; Win64; x64) AppleWebKit/537.36 (KHTML, like Gecko) Chrome/92.0.4515.159 Safari/537.36",WebKit,Chrome,92.0.4515.159,Windows,10.0,5f461dd6c139dd6b46c7596cbd57cd79
217,1,"""","""","""","""","""",sampler,272,197860,0.0-6.0-266.0,"""","""","""","""","""","""","""","""","""","""","""","""","2021-08-17 18:03:36",89.64.118.36,"Mozilla/5.0 (Windows NT 10.0; Win64; x64) AppleWebKit/537.36 (KHTML, like Gecko) Chrome/92.0.4515.159 Safari/537.36",WebKit,Chrome,92.0.4515.159,Windows,10.0,5f461dd6c139dd6b46c7596cbd57cd79
217,1,"""","""","""","""","""",sampler,273,197860,0.0-6.0-267.0,"""","""","""","""","""","""","""","""","""","""","""","""","2021-08-17 18:03:36",89.64.118.36,"Mozilla/5.0 (Windows NT 10.0; Win64; x64) AppleWebKit/537.36 (KHTML, like Gecko) Chrome/92.0.4515.159 Safari/537.36",WebKit,Chrome,92.0.4515.159,Windows,10.0,5f461dd6c139dd6b46c7596cbd57cd79
217,1,"""","""","""","""","""",sampler,274,197860,0.0-6.0-268.0,"""","""","""","""","""","""","""","""","""","""","""","""","2021-08-17 18:03:36",89.64.118.36,"Mozilla/5.0 (Windows NT 10.0; Win64; x64) AppleWebKit/537.36 (KHTML, like Gecko) Chrome/92.0.4515.159 Safari/537.36",WebKit,Chrome,92.0.4515.159,Windows,10.0,5f461dd6c139dd6b46c7596cbd57cd79
217,1,"""","""","""","""","""",sampler,275,197860,0.0-6.0-269.0,"""","""","""","""","""","""","""","""","""","""","""","""","2021-08-17 18:03:36",89.64.118.36,"Mozilla/5.0 (Windows NT 10.0; Win64; x64) AppleWebKit/537.36 (KHTML, like Gecko) Chrome/92.0.4515.159 Safari/537.36",WebKit,Chrome,92.0.4515.159,Windows,10.0,5f461dd6c139dd6b46c7596cbd57cd79
217,1,"""","""","""","""","""",sampler,276,197860,0.0-6.0-270.0,"""","""","""","""","""","""","""","""","""","""","""","""","2021-08-17 18:03:36",89.64.118.36,"Mozilla/5.0 (Windows NT 10.0; Win64; x64) AppleWebKit/537.36 (KHTML, like Gecko) Chrome/92.0.4515.159 Safari/537.36",WebKit,Chrome,92.0.4515.159,Windows,10.0,5f461dd6c139dd6b46c7596cbd57cd79
217,1,"""","""","""","""","""",sampler,277,197860,0.0-6.0-271.0,"""","""","""","""","""","""","""","""","""","""","""","""","2021-08-17 18:03:36",89.64.118.36,"Mozilla/5.0 (Windows NT 10.0; Win64; x64) AppleWebKit/537.36 (KHTML, like Gecko) Chrome/92.0.4515.159 Safari/537.36",WebKit,Chrome,92.0.4515.159,Windows,10.0,5f461dd6c139dd6b46c7596cbd57cd79
217,1,"""","""","""","""","""",sampler,278,197860,0.0-6.0-272.0,"""","""","""","""","""","""","""","""","""","""","""","""","2021-08-17 18:03:36",89.64.118.36,"Mozilla/5.0 (Windows NT 10.0; Win64; x64) AppleWebKit/537.36 (KHTML, like Gecko) Chrome/92.0.4515.159 Safari/537.36",WebKit,Chrome,92.0.4515.159,Windows,10.0,5f461dd6c139dd6b46c7596cbd57cd79
217,1,"""","""","""","""","""",sampler,279,197860,0.0-6.0-273.0,"""","""","""","""","""","""","""","""","""","""","""","""","2021-08-17 18:03:36",89.64.118.36,"Mozilla/5.0 (Windows NT 10.0; Win64; x64) AppleWebKit/537.36 (KHTML, like Gecko) Chrome/92.0.4515.159 Safari/537.36",WebKit,Chrome,92.0.4515.159,Windows,10.0,5f461dd6c139dd6b46c7596cbd57cd79
217,1,"""","""","""","""","""",sampler,280,197861,0.0-6.0-274.0,"""","""","""","""","""","""","""","""","""","""","""","""","2021-08-17 18:03:36",89.64.118.36,"Mozilla/5.0 (Windows NT 10.0; Win64; x64) AppleWebKit/537.36 (KHTML, like Gecko) Chrome/92.0.4515.159 Safari/537.36",WebKit,Chrome,92.0.4515.159,Windows,10.0,5f461dd6c139dd6b46c7596cbd57cd79
