run_id,condition,success,timeout,failed_images,failed_audio,failed_video,trial_type,trial_index,time_elapsed,internal_node_id,rt,stimulus,key_press,responses,view_history,correct,image_click,points,sd,points2,total_earn,button_pressed,recorded_at,ip,user_agent,device,browser,browser_version,platform,platform_version,source_code_version
211,1,true,false,"""","""","""",preload,0,366,0.0-0.0,"""","""","""","""","""","""","""","""","""","""","""","""","2021-08-13 22:30:50",70.191.38.13,"Mozilla/5.0 (Windows NT 10.0; Win64; x64) AppleWebKit/537.36 (KHTML, like Gecko) Chrome/92.0.4515.107 Safari/537.36",WebKit,Chrome,92.0.4515.107,Windows,10.0,5f461dd6c139dd6b46c7596cbd57cd79
211,1,"""","""","""","""","""",html-keyboard-response,1,9736,0.0-1.0,9368,"<font size=15>Welcome to our experiment!</font><br><br><br><i> Press <b>space bar</b> to begin.</i>",32,"""","""","""","""","""","""","""","""","""","2021-08-13 22:30:50",70.191.38.13,"Mozilla/5.0 (Windows NT 10.0; Win64; x64) AppleWebKit/537.36 (KHTML, like Gecko) Chrome/92.0.4515.107 Safari/537.36",WebKit,Chrome,92.0.4515.107,Windows,10.0,5f461dd6c139dd6b46c7596cbd57cd79
211,1,"""","""","""","""","""",survey-multi-choice,2,30723,0.0-2.0,20984,"""","""","{""Q0"":""Yes"",""Q1"":""Yes"",""Q2"":""Yes"",""Q3"":""Yes""}","""","""","""","""","""","""","""","""","2021-08-13 22:30:50",70.191.38.13,"Mozilla/5.0 (Windows NT 10.0; Win64; x64) AppleWebKit/537.36 (KHTML, like Gecko) Chrome/92.0.4515.107 Safari/537.36",WebKit,Chrome,92.0.4515.107,Windows,10.0,5f461dd6c139dd6b46c7596cbd57cd79
211,1,"""","""","""","""","""",survey-html-form,3,63829,0.0-3.0,33101.5,"""","""","{""gender"":""female"",""age"":""25"",""hand"":""right"",""mail"":""610832fe5bba00be3dba6721""}","""","""","""","""","""","""","""","""","2021-08-13 22:30:50",70.191.38.13,"Mozilla/5.0 (Windows NT 10.0; Win64; x64) AppleWebKit/537.36 (KHTML, like Gecko) Chrome/92.0.4515.107 Safari/537.36",WebKit,Chrome,92.0.4515.107,Windows,10.0,5f461dd6c139dd6b46c7596cbd57cd79
211,1,true,"""","""","""","""",fullscreen,4,88396,0.0-4.0,"""","""","""","""","""","""","""","""","""","""","""","""","2021-08-13 22:30:50",70.191.38.13,"Mozilla/5.0 (Windows NT 10.0; Win64; x64) AppleWebKit/537.36 (KHTML, like Gecko) Chrome/92.0.4515.107 Safari/537.36",WebKit,Chrome,92.0.4515.107,Windows,10.0,5f461dd6c139dd6b46c7596cbd57cd79
211,1,"""","""","""","""","""",multikey-instructions,5,314615,0.0-5.0,226217,"""","""","""","[{""page_index"":0,""viewing_time"":67904},{""page_index"":1,""viewing_time"":11463},{""page_index"":2,""viewing_time"":11952},{""page_index"":3,""viewing_time"":12850},{""page_index"":4,""viewing_time"":10381},{""page_index"":5,""viewing_time"":9359},{""page_index"":6,""viewing_time"":5493},{""page_index"":7,""viewing_time"":12266},{""page_index"":8,""viewing_time"":19116},{""page_index"":9,""viewing_time"":39784},{""page_index"":10,""viewing_time"":8292},{""page_index"":11,""viewing_time"":17356}]","""","""","""","""","""","""","""","2021-08-13 22:30:50",70.191.38.13,"Mozilla/5.0 (Windows NT 10.0; Win64; x64) AppleWebKit/537.36 (KHTML, like Gecko) Chrome/92.0.4515.107 Safari/537.36",WebKit,Chrome,92.0.4515.107,Windows,10.0,5f461dd6c139dd6b46c7596cbd57cd79
211,1,"""","""","""","""","""",sampler,6,337697,0.0-6.0-0.0,22677,img/Cyan.png,"""","""","""",false,-1,3.1801749910289336,5,"""","""","""","2021-08-13 22:30:50",70.191.38.13,"Mozilla/5.0 (Windows NT 10.0; Win64; x64) AppleWebKit/537.36 (KHTML, like Gecko) Chrome/92.0.4515.107 Safari/537.36",WebKit,Chrome,92.0.4515.107,Windows,10.0,5f461dd6c139dd6b46c7596cbd57cd79
211,1,"""","""","""","""","""",sampler,7,338364,0.0-6.0-1.0,256,img/Cyan.png,"""","""","""",false,-1,0.4257927762146494,5,"""","""","""","2021-08-13 22:30:50",70.191.38.13,"Mozilla/5.0 (Windows NT 10.0; Win64; x64) AppleWebKit/537.36 (KHTML, like Gecko) Chrome/92.0.4515.107 Safari/537.36",WebKit,Chrome,92.0.4515.107,Windows,10.0,5f461dd6c139dd6b46c7596cbd57cd79
211,1,"""","""","""","""","""",sampler,8,339004,0.0-6.0-2.0,236,img/Cyan.png,"""","""","""",false,-1,9.512412680800486,5,"""","""","""","2021-08-13 22:30:50",70.191.38.13,"Mozilla/5.0 (Windows NT 10.0; Win64; x64) AppleWebKit/537.36 (KHTML, like Gecko) Chrome/92.0.4515.107 Safari/537.36",WebKit,Chrome,92.0.4515.107,Windows,10.0,5f461dd6c139dd6b46c7596cbd57cd79
211,1,"""","""","""","""","""",sampler,9,339634,0.0-6.0-3.0,226,img/Cyan.png,"""","""","""",false,-1,2.6470855805931572,5,"""","""","""","2021-08-13 22:30:50",70.191.38.13,"Mozilla/5.0 (Windows NT 10.0; Win64; x64) AppleWebKit/537.36 (KHTML, like Gecko) Chrome/92.0.4515.107 Safari/537.36",WebKit,Chrome,92.0.4515.107,Windows,10.0,5f461dd6c139dd6b46c7596cbd57cd79
211,1,"""","""","""","""","""",sampler,10,340321,0.0-6.0-4.0,284,img/Cyan.png,"""","""","""",false,-1,12.319771860665629,5,"""","""","""","2021-08-13 22:30:50",70.191.38.13,"Mozilla/5.0 (Windows NT 10.0; Win64; x64) AppleWebKit/537.36 (KHTML, like Gecko) Chrome/92.0.4515.107 Safari/537.36",WebKit,Chrome,92.0.4515.107,Windows,10.0,5f461dd6c139dd6b46c7596cbd57cd79
211,1,"""","""","""","""","""",sampler,11,340808,0.0-6.0-5.0,85,img/Cyan.png,"""","""","""",false,-1,5.600073650765667,5,"""","""","""","2021-08-13 22:30:50",70.191.38.13,"Mozilla/5.0 (Windows NT 10.0; Win64; x64) AppleWebKit/537.36 (KHTML, like Gecko) Chrome/92.0.4515.107 Safari/537.36",WebKit,Chrome,92.0.4515.107,Windows,10.0,5f461dd6c139dd6b46c7596cbd57cd79
211,1,"""","""","""","""","""",sampler,12,341332,0.0-6.0-6.0,120,img/Cyan.png,"""","""","""",false,-1,1.9758008295139988,5,"""","""","""","2021-08-13 22:30:50",70.191.38.13,"Mozilla/5.0 (Windows NT 10.0; Win64; x64) AppleWebKit/537.36 (KHTML, like Gecko) Chrome/92.0.4515.107 Safari/537.36",WebKit,Chrome,92.0.4515.107,Windows,10.0,5f461dd6c139dd6b46c7596cbd57cd79
211,1,"""","""","""","""","""",sampler,13,341823,0.0-6.0-7.0,88,img/Cyan.png,"""","""","""",false,-1,7.124368792412464,5,"""","""","""","2021-08-13 22:30:50",70.191.38.13,"Mozilla/5.0 (Windows NT 10.0; Win64; x64) AppleWebKit/537.36 (KHTML, like Gecko) Chrome/92.0.4515.107 Safari/537.36",WebKit,Chrome,92.0.4515.107,Windows,10.0,5f461dd6c139dd6b46c7596cbd57cd79
211,1,"""","""","""","""","""",sampler,14,342254,0.0-6.0-8.0,28,img/Cyan.png,"""","""","""",false,-1,4.734269248832653,5,"""","""","""","2021-08-13 22:30:50",70.191.38.13,"Mozilla/5.0 (Windows NT 10.0; Win64; x64) AppleWebKit/537.36 (KHTML, like Gecko) Chrome/92.0.4515.107 Safari/537.36",WebKit,Chrome,92.0.4515.107,Windows,10.0,5f461dd6c139dd6b46c7596cbd57cd79
211,1,"""","""","""","""","""",sampler,15,342699,0.0-6.0-9.0,42,img/Cyan.png,"""","""","""",false,-1,1.8172012161484234,5,"""","""","""","2021-08-13 22:30:50",70.191.38.13,"Mozilla/5.0 (Windows NT 10.0; Win64; x64) AppleWebKit/537.36 (KHTML, like Gecko) Chrome/92.0.4515.107 Safari/537.36",WebKit,Chrome,92.0.4515.107,Windows,10.0,5f461dd6c139dd6b46c7596cbd57cd79
211,1,"""","""","""","""","""",sampler,16,343505,0.0-6.0-10.0,404,img/Cyan.png,"""","""","""",false,-1,4.493334472755038,5,"""","""","""","2021-08-13 22:30:50",70.191.38.13,"Mozilla/5.0 (Windows NT 10.0; Win64; x64) AppleWebKit/537.36 (KHTML, like Gecko) Chrome/92.0.4515.107 Safari/537.36",WebKit,Chrome,92.0.4515.107,Windows,10.0,5f461dd6c139dd6b46c7596cbd57cd79
211,1,"""","""","""","""","""",sampler,17,344089,0.0-6.0-11.0,179,img/Cyan.png,"""","""","""",false,-1,9.447621785918379,5,"""","""","""","2021-08-13 22:30:50",70.191.38.13,"Mozilla/5.0 (Windows NT 10.0; Win64; x64) AppleWebKit/537.36 (KHTML, like Gecko) Chrome/92.0.4515.107 Safari/537.36",WebKit,Chrome,92.0.4515.107,Windows,10.0,5f461dd6c139dd6b46c7596cbd57cd79
211,1,"""","""","""","""","""",sampler,18,344677,0.0-6.0-12.0,185,img/Cyan.png,"""","""","""",false,-1,4.434872428552457,5,"""","""","""","2021-08-13 22:30:50",70.191.38.13,"Mozilla/5.0 (Windows NT 10.0; Win64; x64) AppleWebKit/537.36 (KHTML, like Gecko) Chrome/92.0.4515.107 Safari/537.36",WebKit,Chrome,92.0.4515.107,Windows,10.0,5f461dd6c139dd6b46c7596cbd57cd79
211,1,"""","""","""","""","""",sampler,19,345142,0.0-6.0-13.0,63,img/Cyan.png,"""","""","""",false,-1,5.117028342882621,5,"""","""","""","2021-08-13 22:30:50",70.191.38.13,"Mozilla/5.0 (Windows NT 10.0; Win64; x64) AppleWebKit/537.36 (KHTML, like Gecko) Chrome/92.0.4515.107 Safari/537.36",WebKit,Chrome,92.0.4515.107,Windows,10.0,5f461dd6c139dd6b46c7596cbd57cd79
211,1,"""","""","""","""","""",sampler,20,345610,0.0-6.0-14.0,64,img/Cyan.png,"""","""","""",false,-1,2.2749449336218577,5,"""","""","""","2021-08-13 22:30:50",70.191.38.13,"Mozilla/5.0 (Windows NT 10.0; Win64; x64) AppleWebKit/537.36 (KHTML, like Gecko) Chrome/92.0.4515.107 Safari/537.36",WebKit,Chrome,92.0.4515.107,Windows,10.0,5f461dd6c139dd6b46c7596cbd57cd79
211,1,"""","""","""","""","""",sampler,21,346060,0.0-6.0-15.0,47,img/Cyan.png,"""","""","""",false,-1,4.210061916038876,5,"""","""","""","2021-08-13 22:30:50",70.191.38.13,"Mozilla/5.0 (Windows NT 10.0; Win64; x64) AppleWebKit/537.36 (KHTML, like Gecko) Chrome/92.0.4515.107 Safari/537.36",WebKit,Chrome,92.0.4515.107,Windows,10.0,5f461dd6c139dd6b46c7596cbd57cd79
211,1,"""","""","""","""","""",sampler,22,346478,0.0-6.0-16.0,15,img/Cyan.png,"""","""","""",false,-1,-3.0753696053158315,5,"""","""","""","2021-08-13 22:30:50",70.191.38.13,"Mozilla/5.0 (Windows NT 10.0; Win64; x64) AppleWebKit/537.36 (KHTML, like Gecko) Chrome/92.0.4515.107 Safari/537.36",WebKit,Chrome,92.0.4515.107,Windows,10.0,5f461dd6c139dd6b46c7596cbd57cd79
211,1,"""","""","""","""","""",sampler,23,347083,0.0-6.0-17.0,202,img/Cyan.png,"""","""","""",false,-1,-4.702657144425229,5,"""","""","""","2021-08-13 22:30:50",70.191.38.13,"Mozilla/5.0 (Windows NT 10.0; Win64; x64) AppleWebKit/537.36 (KHTML, like Gecko) Chrome/92.0.4515.107 Safari/537.36",WebKit,Chrome,92.0.4515.107,Windows,10.0,5f461dd6c139dd6b46c7596cbd57cd79
211,1,"""","""","""","""","""",sampler,24,347570,0.0-6.0-18.0,83,img/Cyan.png,"""","""","""",false,-1,2.855676275582053,5,"""","""","""","2021-08-13 22:30:50",70.191.38.13,"Mozilla/5.0 (Windows NT 10.0; Win64; x64) AppleWebKit/537.36 (KHTML, like Gecko) Chrome/92.0.4515.107 Safari/537.36",WebKit,Chrome,92.0.4515.107,Windows,10.0,5f461dd6c139dd6b46c7596cbd57cd79
211,1,"""","""","""","""","""",sampler,25,348021,0.0-6.0-19.0,48,img/Cyan.png,"""","""","""",false,-1,4.447533321340081,5,"""","""","""","2021-08-13 22:30:50",70.191.38.13,"Mozilla/5.0 (Windows NT 10.0; Win64; x64) AppleWebKit/537.36 (KHTML, like Gecko) Chrome/92.0.4515.107 Safari/537.36",WebKit,Chrome,92.0.4515.107,Windows,10.0,5f461dd6c139dd6b46c7596cbd57cd79
211,1,"""","""","""","""","""",sampler,26,348891,0.0-6.0-20.0,468,img/Cyan.png,"""","""","""",false,-1,-4.903382242543522,5,"""","""","""","2021-08-13 22:30:50",70.191.38.13,"Mozilla/5.0 (Windows NT 10.0; Win64; x64) AppleWebKit/537.36 (KHTML, like Gecko) Chrome/92.0.4515.107 Safari/537.36",WebKit,Chrome,92.0.4515.107,Windows,10.0,5f461dd6c139dd6b46c7596cbd57cd79
211,1,"""","""","""","""","""",sampler,27,349428,0.0-6.0-21.0,132,img/Cyan.png,"""","""","""",false,-1,1.7191609820072182,5,"""","""","""","2021-08-13 22:30:50",70.191.38.13,"Mozilla/5.0 (Windows NT 10.0; Win64; x64) AppleWebKit/537.36 (KHTML, like Gecko) Chrome/92.0.4515.107 Safari/537.36",WebKit,Chrome,92.0.4515.107,Windows,10.0,5f461dd6c139dd6b46c7596cbd57cd79
211,1,"""","""","""","""","""",sampler,28,349891,0.0-6.0-22.0,60,img/Cyan.png,"""","""","""",false,-1,9.354303562990937,5,"""","""","""","2021-08-13 22:30:50",70.191.38.13,"Mozilla/5.0 (Windows NT 10.0; Win64; x64) AppleWebKit/537.36 (KHTML, like Gecko) Chrome/92.0.4515.107 Safari/537.36",WebKit,Chrome,92.0.4515.107,Windows,10.0,5f461dd6c139dd6b46c7596cbd57cd79
211,1,"""","""","""","""","""",sampler,29,350432,0.0-6.0-23.0,138,img/Cyan.png,"""","""","""",false,-1,10.183444982773104,5,"""","""","""","2021-08-13 22:30:50",70.191.38.13,"Mozilla/5.0 (Windows NT 10.0; Win64; x64) AppleWebKit/537.36 (KHTML, like Gecko) Chrome/92.0.4515.107 Safari/537.36",WebKit,Chrome,92.0.4515.107,Windows,10.0,5f461dd6c139dd6b46c7596cbd57cd79
211,1,"""","""","""","""","""",sampler,30,350922,0.0-6.0-24.0,87,img/Cyan.png,"""","""","""",false,-1,1.2684966978608938,5,"""","""","""","2021-08-13 22:30:50",70.191.38.13,"Mozilla/5.0 (Windows NT 10.0; Win64; x64) AppleWebKit/537.36 (KHTML, like Gecko) Chrome/92.0.4515.107 Safari/537.36",WebKit,Chrome,92.0.4515.107,Windows,10.0,5f461dd6c139dd6b46c7596cbd57cd79
211,1,"""","""","""","""","""",sampler,31,351435,0.0-6.0-25.0,110,img/Cyan.png,"""","""","""",false,-1,5.895420483542413,5,"""","""","""","2021-08-13 22:30:50",70.191.38.13,"Mozilla/5.0 (Windows NT 10.0; Win64; x64) AppleWebKit/537.36 (KHTML, like Gecko) Chrome/92.0.4515.107 Safari/537.36",WebKit,Chrome,92.0.4515.107,Windows,10.0,5f461dd6c139dd6b46c7596cbd57cd79
211,1,"""","""","""","""","""",sampler,32,352022,0.0-6.0-26.0,184,img/Cyan.png,"""","""","""",false,-1,-4.021586474189565,5,"""","""","""","2021-08-13 22:30:50",70.191.38.13,"Mozilla/5.0 (Windows NT 10.0; Win64; x64) AppleWebKit/537.36 (KHTML, like Gecko) Chrome/92.0.4515.107 Safari/537.36",WebKit,Chrome,92.0.4515.107,Windows,10.0,5f461dd6c139dd6b46c7596cbd57cd79
211,1,"""","""","""","""","""",sampler,33,352549,0.0-6.0-27.0,124,img/Cyan.png,"""","""","""",false,-1,3.0462516074294377,5,"""","""","""","2021-08-13 22:30:50",70.191.38.13,"Mozilla/5.0 (Windows NT 10.0; Win64; x64) AppleWebKit/537.36 (KHTML, like Gecko) Chrome/92.0.4515.107 Safari/537.36",WebKit,Chrome,92.0.4515.107,Windows,10.0,5f461dd6c139dd6b46c7596cbd57cd79
211,1,"""","""","""","""","""",sampler,34,353061,0.0-6.0-28.0,108,img/Cyan.png,"""","""","""",false,-1,4.5109031089982645,5,"""","""","""","2021-08-13 22:30:50",70.191.38.13,"Mozilla/5.0 (Windows NT 10.0; Win64; x64) AppleWebKit/537.36 (KHTML, like Gecko) Chrome/92.0.4515.107 Safari/537.36",WebKit,Chrome,92.0.4515.107,Windows,10.0,5f461dd6c139dd6b46c7596cbd57cd79
211,1,"""","""","""","""","""",sampler,35,353561,0.0-6.0-29.0,98,img/Cyan.png,"""","""","""",false,-1,4.480936634367941,5,"""","""","""","2021-08-13 22:30:50",70.191.38.13,"Mozilla/5.0 (Windows NT 10.0; Win64; x64) AppleWebKit/537.36 (KHTML, like Gecko) Chrome/92.0.4515.107 Safari/537.36",WebKit,Chrome,92.0.4515.107,Windows,10.0,5f461dd6c139dd6b46c7596cbd57cd79
211,1,"""","""","""","""","""",sampler,36,354110,0.0-6.0-30.0,146,img/Cyan.png,"""","""","""",false,-1,-1.85323285259284,5,"""","""","""","2021-08-13 22:30:50",70.191.38.13,"Mozilla/5.0 (Windows NT 10.0; Win64; x64) AppleWebKit/537.36 (KHTML, like Gecko) Chrome/92.0.4515.107 Safari/537.36",WebKit,Chrome,92.0.4515.107,Windows,10.0,5f461dd6c139dd6b46c7596cbd57cd79
211,1,"""","""","""","""","""",sampler,37,354611,0.0-6.0-31.0,98,img/Cyan.png,"""","""","""",false,-1,-5.148711774801377,5,"""","""","""","2021-08-13 22:30:50",70.191.38.13,"Mozilla/5.0 (Windows NT 10.0; Win64; x64) AppleWebKit/537.36 (KHTML, like Gecko) Chrome/92.0.4515.107 Safari/537.36",WebKit,Chrome,92.0.4515.107,Windows,10.0,5f461dd6c139dd6b46c7596cbd57cd79
211,1,"""","""","""","""","""",sampler,38,355031,0.0-6.0-32.0,15,img/Cyan.png,"""","""","""",false,-1,1.47575003277545,5,"""","""","""","2021-08-13 22:30:50",70.191.38.13,"Mozilla/5.0 (Windows NT 10.0; Win64; x64) AppleWebKit/537.36 (KHTML, like Gecko) Chrome/92.0.4515.107 Safari/537.36",WebKit,Chrome,92.0.4515.107,Windows,10.0,5f461dd6c139dd6b46c7596cbd57cd79
211,1,"""","""","""","""","""",sampler,39,355470,0.0-6.0-33.0,35,img/Cyan.png,"""","""","""",false,-1,7.55053127387168,5,"""","""","""","2021-08-13 22:30:50",70.191.38.13,"Mozilla/5.0 (Windows NT 10.0; Win64; x64) AppleWebKit/537.36 (KHTML, like Gecko) Chrome/92.0.4515.107 Safari/537.36",WebKit,Chrome,92.0.4515.107,Windows,10.0,5f461dd6c139dd6b46c7596cbd57cd79
211,1,"""","""","""","""","""",sampler,40,355933,0.0-6.0-34.0,60,img/Cyan.png,"""","""","""",false,-1,6.170208591326526,5,"""","""","""","2021-08-13 22:30:50",70.191.38.13,"Mozilla/5.0 (Windows NT 10.0; Win64; x64) AppleWebKit/537.36 (KHTML, like Gecko) Chrome/92.0.4515.107 Safari/537.36",WebKit,Chrome,92.0.4515.107,Windows,10.0,5f461dd6c139dd6b46c7596cbd57cd79
211,1,"""","""","""","""","""",sampler,41,356374,0.0-6.0-35.0,39,img/Cyan.png,"""","""","""",false,-1,9.045246956223469,5,"""","""","""","2021-08-13 22:30:50",70.191.38.13,"Mozilla/5.0 (Windows NT 10.0; Win64; x64) AppleWebKit/537.36 (KHTML, like Gecko) Chrome/92.0.4515.107 Safari/537.36",WebKit,Chrome,92.0.4515.107,Windows,10.0,5f461dd6c139dd6b46c7596cbd57cd79
211,1,"""","""","""","""","""",sampler,42,356908,0.0-6.0-36.0,131,img/Cyan.png,"""","""","""",false,-1,-1.163851370547956,5,"""","""","""","2021-08-13 22:30:50",70.191.38.13,"Mozilla/5.0 (Windows NT 10.0; Win64; x64) AppleWebKit/537.36 (KHTML, like Gecko) Chrome/92.0.4515.107 Safari/537.36",WebKit,Chrome,92.0.4515.107,Windows,10.0,5f461dd6c139dd6b46c7596cbd57cd79
211,1,"""","""","""","""","""",sampler,43,360959,0.0-6.0-37.0,3649,img/Cyan.png,"""","""","""",false,-1,5.985864077420969,5,"""","""","""","2021-08-13 22:30:50",70.191.38.13,"Mozilla/5.0 (Windows NT 10.0; Win64; x64) AppleWebKit/537.36 (KHTML, like Gecko) Chrome/92.0.4515.107 Safari/537.36",WebKit,Chrome,92.0.4515.107,Windows,10.0,5f461dd6c139dd6b46c7596cbd57cd79
211,1,"""","""","""","""","""",sampler,44,360963,0.0-6.0-38.0,"""","""","""","""","""","""","""","""","""","""","""","""","2021-08-13 22:30:50",70.191.38.13,"Mozilla/5.0 (Windows NT 10.0; Win64; x64) AppleWebKit/537.36 (KHTML, like Gecko) Chrome/92.0.4515.107 Safari/537.36",WebKit,Chrome,92.0.4515.107,Windows,10.0,5f461dd6c139dd6b46c7596cbd57cd79
211,1,"""","""","""","""","""",sampler,45,360963,0.0-6.0-39.0,"""","""","""","""","""","""","""","""","""","""","""","""","2021-08-13 22:30:50",70.191.38.13,"Mozilla/5.0 (Windows NT 10.0; Win64; x64) AppleWebKit/537.36 (KHTML, like Gecko) Chrome/92.0.4515.107 Safari/537.36",WebKit,Chrome,92.0.4515.107,Windows,10.0,5f461dd6c139dd6b46c7596cbd57cd79
211,1,"""","""","""","""","""",sampler,46,360963,0.0-6.0-40.0,"""","""","""","""","""","""","""","""","""","""","""","""","2021-08-13 22:30:50",70.191.38.13,"Mozilla/5.0 (Windows NT 10.0; Win64; x64) AppleWebKit/537.36 (KHTML, like Gecko) Chrome/92.0.4515.107 Safari/537.36",WebKit,Chrome,92.0.4515.107,Windows,10.0,5f461dd6c139dd6b46c7596cbd57cd79
211,1,"""","""","""","""","""",sampler,47,360963,0.0-6.0-41.0,"""","""","""","""","""","""","""","""","""","""","""","""","2021-08-13 22:30:50",70.191.38.13,"Mozilla/5.0 (Windows NT 10.0; Win64; x64) AppleWebKit/537.36 (KHTML, like Gecko) Chrome/92.0.4515.107 Safari/537.36",WebKit,Chrome,92.0.4515.107,Windows,10.0,5f461dd6c139dd6b46c7596cbd57cd79
211,1,"""","""","""","""","""",sampler,48,360964,0.0-6.0-42.0,"""","""","""","""","""","""","""","""","""","""","""","""","2021-08-13 22:30:50",70.191.38.13,"Mozilla/5.0 (Windows NT 10.0; Win64; x64) AppleWebKit/537.36 (KHTML, like Gecko) Chrome/92.0.4515.107 Safari/537.36",WebKit,Chrome,92.0.4515.107,Windows,10.0,5f461dd6c139dd6b46c7596cbd57cd79
211,1,"""","""","""","""","""",sampler,49,360964,0.0-6.0-43.0,"""","""","""","""","""","""","""","""","""","""","""","""","2021-08-13 22:30:50",70.191.38.13,"Mozilla/5.0 (Windows NT 10.0; Win64; x64) AppleWebKit/537.36 (KHTML, like Gecko) Chrome/92.0.4515.107 Safari/537.36",WebKit,Chrome,92.0.4515.107,Windows,10.0,5f461dd6c139dd6b46c7596cbd57cd79
211,1,"""","""","""","""","""",sampler,50,360964,0.0-6.0-44.0,"""","""","""","""","""","""","""","""","""","""","""","""","2021-08-13 22:30:50",70.191.38.13,"Mozilla/5.0 (Windows NT 10.0; Win64; x64) AppleWebKit/537.36 (KHTML, like Gecko) Chrome/92.0.4515.107 Safari/537.36",WebKit,Chrome,92.0.4515.107,Windows,10.0,5f461dd6c139dd6b46c7596cbd57cd79
211,1,"""","""","""","""","""",sampler,51,360964,0.0-6.0-45.0,"""","""","""","""","""","""","""","""","""","""","""","""","2021-08-13 22:30:50",70.191.38.13,"Mozilla/5.0 (Windows NT 10.0; Win64; x64) AppleWebKit/537.36 (KHTML, like Gecko) Chrome/92.0.4515.107 Safari/537.36",WebKit,Chrome,92.0.4515.107,Windows,10.0,5f461dd6c139dd6b46c7596cbd57cd79
211,1,"""","""","""","""","""",sampler,52,360964,0.0-6.0-46.0,"""","""","""","""","""","""","""","""","""","""","""","""","2021-08-13 22:30:50",70.191.38.13,"Mozilla/5.0 (Windows NT 10.0; Win64; x64) AppleWebKit/537.36 (KHTML, like Gecko) Chrome/92.0.4515.107 Safari/537.36",WebKit,Chrome,92.0.4515.107,Windows,10.0,5f461dd6c139dd6b46c7596cbd57cd79
211,1,"""","""","""","""","""",sampler,53,360965,0.0-6.0-47.0,"""","""","""","""","""","""","""","""","""","""","""","""","2021-08-13 22:30:50",70.191.38.13,"Mozilla/5.0 (Windows NT 10.0; Win64; x64) AppleWebKit/537.36 (KHTML, like Gecko) Chrome/92.0.4515.107 Safari/537.36",WebKit,Chrome,92.0.4515.107,Windows,10.0,5f461dd6c139dd6b46c7596cbd57cd79
211,1,"""","""","""","""","""",sampler,54,360965,0.0-6.0-48.0,"""","""","""","""","""","""","""","""","""","""","""","""","2021-08-13 22:30:50",70.191.38.13,"Mozilla/5.0 (Windows NT 10.0; Win64; x64) AppleWebKit/537.36 (KHTML, like Gecko) Chrome/92.0.4515.107 Safari/537.36",WebKit,Chrome,92.0.4515.107,Windows,10.0,5f461dd6c139dd6b46c7596cbd57cd79
211,1,"""","""","""","""","""",sampler,55,360965,0.0-6.0-49.0,"""","""","""","""","""","""","""","""","""","""","""","""","2021-08-13 22:30:50",70.191.38.13,"Mozilla/5.0 (Windows NT 10.0; Win64; x64) AppleWebKit/537.36 (KHTML, like Gecko) Chrome/92.0.4515.107 Safari/537.36",WebKit,Chrome,92.0.4515.107,Windows,10.0,5f461dd6c139dd6b46c7596cbd57cd79
211,1,"""","""","""","""","""",sampler,56,360965,0.0-6.0-50.0,"""","""","""","""","""","""","""","""","""","""","""","""","2021-08-13 22:30:50",70.191.38.13,"Mozilla/5.0 (Windows NT 10.0; Win64; x64) AppleWebKit/537.36 (KHTML, like Gecko) Chrome/92.0.4515.107 Safari/537.36",WebKit,Chrome,92.0.4515.107,Windows,10.0,5f461dd6c139dd6b46c7596cbd57cd79
211,1,"""","""","""","""","""",sampler,57,360965,0.0-6.0-51.0,"""","""","""","""","""","""","""","""","""","""","""","""","2021-08-13 22:30:50",70.191.38.13,"Mozilla/5.0 (Windows NT 10.0; Win64; x64) AppleWebKit/537.36 (KHTML, like Gecko) Chrome/92.0.4515.107 Safari/537.36",WebKit,Chrome,92.0.4515.107,Windows,10.0,5f461dd6c139dd6b46c7596cbd57cd79
211,1,"""","""","""","""","""",sampler,58,360965,0.0-6.0-52.0,"""","""","""","""","""","""","""","""","""","""","""","""","2021-08-13 22:30:50",70.191.38.13,"Mozilla/5.0 (Windows NT 10.0; Win64; x64) AppleWebKit/537.36 (KHTML, like Gecko) Chrome/92.0.4515.107 Safari/537.36",WebKit,Chrome,92.0.4515.107,Windows,10.0,5f461dd6c139dd6b46c7596cbd57cd79
211,1,"""","""","""","""","""",sampler,59,360965,0.0-6.0-53.0,"""","""","""","""","""","""","""","""","""","""","""","""","2021-08-13 22:30:50",70.191.38.13,"Mozilla/5.0 (Windows NT 10.0; Win64; x64) AppleWebKit/537.36 (KHTML, like Gecko) Chrome/92.0.4515.107 Safari/537.36",WebKit,Chrome,92.0.4515.107,Windows,10.0,5f461dd6c139dd6b46c7596cbd57cd79
211,1,"""","""","""","""","""",sampler,60,360965,0.0-6.0-54.0,"""","""","""","""","""","""","""","""","""","""","""","""","2021-08-13 22:30:50",70.191.38.13,"Mozilla/5.0 (Windows NT 10.0; Win64; x64) AppleWebKit/537.36 (KHTML, like Gecko) Chrome/92.0.4515.107 Safari/537.36",WebKit,Chrome,92.0.4515.107,Windows,10.0,5f461dd6c139dd6b46c7596cbd57cd79
211,1,"""","""","""","""","""",sampler,61,360965,0.0-6.0-55.0,"""","""","""","""","""","""","""","""","""","""","""","""","2021-08-13 22:30:50",70.191.38.13,"Mozilla/5.0 (Windows NT 10.0; Win64; x64) AppleWebKit/537.36 (KHTML, like Gecko) Chrome/92.0.4515.107 Safari/537.36",WebKit,Chrome,92.0.4515.107,Windows,10.0,5f461dd6c139dd6b46c7596cbd57cd79
211,1,"""","""","""","""","""",sampler,62,360965,0.0-6.0-56.0,"""","""","""","""","""","""","""","""","""","""","""","""","2021-08-13 22:30:50",70.191.38.13,"Mozilla/5.0 (Windows NT 10.0; Win64; x64) AppleWebKit/537.36 (KHTML, like Gecko) Chrome/92.0.4515.107 Safari/537.36",WebKit,Chrome,92.0.4515.107,Windows,10.0,5f461dd6c139dd6b46c7596cbd57cd79
211,1,"""","""","""","""","""",sampler,63,360965,0.0-6.0-57.0,"""","""","""","""","""","""","""","""","""","""","""","""","2021-08-13 22:30:50",70.191.38.13,"Mozilla/5.0 (Windows NT 10.0; Win64; x64) AppleWebKit/537.36 (KHTML, like Gecko) Chrome/92.0.4515.107 Safari/537.36",WebKit,Chrome,92.0.4515.107,Windows,10.0,5f461dd6c139dd6b46c7596cbd57cd79
211,1,"""","""","""","""","""",sampler,64,360965,0.0-6.0-58.0,"""","""","""","""","""","""","""","""","""","""","""","""","2021-08-13 22:30:50",70.191.38.13,"Mozilla/5.0 (Windows NT 10.0; Win64; x64) AppleWebKit/537.36 (KHTML, like Gecko) Chrome/92.0.4515.107 Safari/537.36",WebKit,Chrome,92.0.4515.107,Windows,10.0,5f461dd6c139dd6b46c7596cbd57cd79
211,1,"""","""","""","""","""",sampler,65,360965,0.0-6.0-59.0,"""","""","""","""","""","""","""","""","""","""","""","""","2021-08-13 22:30:50",70.191.38.13,"Mozilla/5.0 (Windows NT 10.0; Win64; x64) AppleWebKit/537.36 (KHTML, like Gecko) Chrome/92.0.4515.107 Safari/537.36",WebKit,Chrome,92.0.4515.107,Windows,10.0,5f461dd6c139dd6b46c7596cbd57cd79
211,1,"""","""","""","""","""",sampler,66,360965,0.0-6.0-60.0,"""","""","""","""","""","""","""","""","""","""","""","""","2021-08-13 22:30:50",70.191.38.13,"Mozilla/5.0 (Windows NT 10.0; Win64; x64) AppleWebKit/537.36 (KHTML, like Gecko) Chrome/92.0.4515.107 Safari/537.36",WebKit,Chrome,92.0.4515.107,Windows,10.0,5f461dd6c139dd6b46c7596cbd57cd79
211,1,"""","""","""","""","""",sampler,67,360966,0.0-6.0-61.0,"""","""","""","""","""","""","""","""","""","""","""","""","2021-08-13 22:30:50",70.191.38.13,"Mozilla/5.0 (Windows NT 10.0; Win64; x64) AppleWebKit/537.36 (KHTML, like Gecko) Chrome/92.0.4515.107 Safari/537.36",WebKit,Chrome,92.0.4515.107,Windows,10.0,5f461dd6c139dd6b46c7596cbd57cd79
211,1,"""","""","""","""","""",sampler,68,360966,0.0-6.0-62.0,"""","""","""","""","""","""","""","""","""","""","""","""","2021-08-13 22:30:50",70.191.38.13,"Mozilla/5.0 (Windows NT 10.0; Win64; x64) AppleWebKit/537.36 (KHTML, like Gecko) Chrome/92.0.4515.107 Safari/537.36",WebKit,Chrome,92.0.4515.107,Windows,10.0,5f461dd6c139dd6b46c7596cbd57cd79
211,1,"""","""","""","""","""",sampler,69,360966,0.0-6.0-63.0,"""","""","""","""","""","""","""","""","""","""","""","""","2021-08-13 22:30:50",70.191.38.13,"Mozilla/5.0 (Windows NT 10.0; Win64; x64) AppleWebKit/537.36 (KHTML, like Gecko) Chrome/92.0.4515.107 Safari/537.36",WebKit,Chrome,92.0.4515.107,Windows,10.0,5f461dd6c139dd6b46c7596cbd57cd79
211,1,"""","""","""","""","""",sampler,70,360966,0.0-6.0-64.0,"""","""","""","""","""","""","""","""","""","""","""","""","2021-08-13 22:30:50",70.191.38.13,"Mozilla/5.0 (Windows NT 10.0; Win64; x64) AppleWebKit/537.36 (KHTML, like Gecko) Chrome/92.0.4515.107 Safari/537.36",WebKit,Chrome,92.0.4515.107,Windows,10.0,5f461dd6c139dd6b46c7596cbd57cd79
211,1,"""","""","""","""","""",sampler,71,360966,0.0-6.0-65.0,"""","""","""","""","""","""","""","""","""","""","""","""","2021-08-13 22:30:50",70.191.38.13,"Mozilla/5.0 (Windows NT 10.0; Win64; x64) AppleWebKit/537.36 (KHTML, like Gecko) Chrome/92.0.4515.107 Safari/537.36",WebKit,Chrome,92.0.4515.107,Windows,10.0,5f461dd6c139dd6b46c7596cbd57cd79
211,1,"""","""","""","""","""",sampler,72,360967,0.0-6.0-66.0,"""","""","""","""","""","""","""","""","""","""","""","""","2021-08-13 22:30:50",70.191.38.13,"Mozilla/5.0 (Windows NT 10.0; Win64; x64) AppleWebKit/537.36 (KHTML, like Gecko) Chrome/92.0.4515.107 Safari/537.36",WebKit,Chrome,92.0.4515.107,Windows,10.0,5f461dd6c139dd6b46c7596cbd57cd79
211,1,"""","""","""","""","""",sampler,73,360967,0.0-6.0-67.0,"""","""","""","""","""","""","""","""","""","""","""","""","2021-08-13 22:30:50",70.191.38.13,"Mozilla/5.0 (Windows NT 10.0; Win64; x64) AppleWebKit/537.36 (KHTML, like Gecko) Chrome/92.0.4515.107 Safari/537.36",WebKit,Chrome,92.0.4515.107,Windows,10.0,5f461dd6c139dd6b46c7596cbd57cd79
211,1,"""","""","""","""","""",sampler,74,360967,0.0-6.0-68.0,"""","""","""","""","""","""","""","""","""","""","""","""","2021-08-13 22:30:50",70.191.38.13,"Mozilla/5.0 (Windows NT 10.0; Win64; x64) AppleWebKit/537.36 (KHTML, like Gecko) Chrome/92.0.4515.107 Safari/537.36",WebKit,Chrome,92.0.4515.107,Windows,10.0,5f461dd6c139dd6b46c7596cbd57cd79
211,1,"""","""","""","""","""",sampler,75,360967,0.0-6.0-69.0,"""","""","""","""","""","""","""","""","""","""","""","""","2021-08-13 22:30:50",70.191.38.13,"Mozilla/5.0 (Windows NT 10.0; Win64; x64) AppleWebKit/537.36 (KHTML, like Gecko) Chrome/92.0.4515.107 Safari/537.36",WebKit,Chrome,92.0.4515.107,Windows,10.0,5f461dd6c139dd6b46c7596cbd57cd79
211,1,"""","""","""","""","""",sampler,76,360967,0.0-6.0-70.0,"""","""","""","""","""","""","""","""","""","""","""","""","2021-08-13 22:30:50",70.191.38.13,"Mozilla/5.0 (Windows NT 10.0; Win64; x64) AppleWebKit/537.36 (KHTML, like Gecko) Chrome/92.0.4515.107 Safari/537.36",WebKit,Chrome,92.0.4515.107,Windows,10.0,5f461dd6c139dd6b46c7596cbd57cd79
211,1,"""","""","""","""","""",sampler,77,360967,0.0-6.0-71.0,"""","""","""","""","""","""","""","""","""","""","""","""","2021-08-13 22:30:50",70.191.38.13,"Mozilla/5.0 (Windows NT 10.0; Win64; x64) AppleWebKit/537.36 (KHTML, like Gecko) Chrome/92.0.4515.107 Safari/537.36",WebKit,Chrome,92.0.4515.107,Windows,10.0,5f461dd6c139dd6b46c7596cbd57cd79
211,1,"""","""","""","""","""",sampler,78,360967,0.0-6.0-72.0,"""","""","""","""","""","""","""","""","""","""","""","""","2021-08-13 22:30:50",70.191.38.13,"Mozilla/5.0 (Windows NT 10.0; Win64; x64) AppleWebKit/537.36 (KHTML, like Gecko) Chrome/92.0.4515.107 Safari/537.36",WebKit,Chrome,92.0.4515.107,Windows,10.0,5f461dd6c139dd6b46c7596cbd57cd79
211,1,"""","""","""","""","""",sampler,79,360967,0.0-6.0-73.0,"""","""","""","""","""","""","""","""","""","""","""","""","2021-08-13 22:30:50",70.191.38.13,"Mozilla/5.0 (Windows NT 10.0; Win64; x64) AppleWebKit/537.36 (KHTML, like Gecko) Chrome/92.0.4515.107 Safari/537.36",WebKit,Chrome,92.0.4515.107,Windows,10.0,5f461dd6c139dd6b46c7596cbd57cd79
211,1,"""","""","""","""","""",sampler,80,360967,0.0-6.0-74.0,"""","""","""","""","""","""","""","""","""","""","""","""","2021-08-13 22:30:50",70.191.38.13,"Mozilla/5.0 (Windows NT 10.0; Win64; x64) AppleWebKit/537.36 (KHTML, like Gecko) Chrome/92.0.4515.107 Safari/537.36",WebKit,Chrome,92.0.4515.107,Windows,10.0,5f461dd6c139dd6b46c7596cbd57cd79
211,1,"""","""","""","""","""",sampler,81,360967,0.0-6.0-75.0,"""","""","""","""","""","""","""","""","""","""","""","""","2021-08-13 22:30:50",70.191.38.13,"Mozilla/5.0 (Windows NT 10.0; Win64; x64) AppleWebKit/537.36 (KHTML, like Gecko) Chrome/92.0.4515.107 Safari/537.36",WebKit,Chrome,92.0.4515.107,Windows,10.0,5f461dd6c139dd6b46c7596cbd57cd79
211,1,"""","""","""","""","""",sampler,82,360967,0.0-6.0-76.0,"""","""","""","""","""","""","""","""","""","""","""","""","2021-08-13 22:30:50",70.191.38.13,"Mozilla/5.0 (Windows NT 10.0; Win64; x64) AppleWebKit/537.36 (KHTML, like Gecko) Chrome/92.0.4515.107 Safari/537.36",WebKit,Chrome,92.0.4515.107,Windows,10.0,5f461dd6c139dd6b46c7596cbd57cd79
211,1,"""","""","""","""","""",sampler,83,360968,0.0-6.0-77.0,"""","""","""","""","""","""","""","""","""","""","""","""","2021-08-13 22:30:50",70.191.38.13,"Mozilla/5.0 (Windows NT 10.0; Win64; x64) AppleWebKit/537.36 (KHTML, like Gecko) Chrome/92.0.4515.107 Safari/537.36",WebKit,Chrome,92.0.4515.107,Windows,10.0,5f461dd6c139dd6b46c7596cbd57cd79
211,1,"""","""","""","""","""",sampler,84,360968,0.0-6.0-78.0,"""","""","""","""","""","""","""","""","""","""","""","""","2021-08-13 22:30:50",70.191.38.13,"Mozilla/5.0 (Windows NT 10.0; Win64; x64) AppleWebKit/537.36 (KHTML, like Gecko) Chrome/92.0.4515.107 Safari/537.36",WebKit,Chrome,92.0.4515.107,Windows,10.0,5f461dd6c139dd6b46c7596cbd57cd79
211,1,"""","""","""","""","""",sampler,85,360968,0.0-6.0-79.0,"""","""","""","""","""","""","""","""","""","""","""","""","2021-08-13 22:30:50",70.191.38.13,"Mozilla/5.0 (Windows NT 10.0; Win64; x64) AppleWebKit/537.36 (KHTML, like Gecko) Chrome/92.0.4515.107 Safari/537.36",WebKit,Chrome,92.0.4515.107,Windows,10.0,5f461dd6c139dd6b46c7596cbd57cd79
211,1,"""","""","""","""","""",sampler,86,360968,0.0-6.0-80.0,"""","""","""","""","""","""","""","""","""","""","""","""","2021-08-13 22:30:50",70.191.38.13,"Mozilla/5.0 (Windows NT 10.0; Win64; x64) AppleWebKit/537.36 (KHTML, like Gecko) Chrome/92.0.4515.107 Safari/537.36",WebKit,Chrome,92.0.4515.107,Windows,10.0,5f461dd6c139dd6b46c7596cbd57cd79
211,1,"""","""","""","""","""",sampler,87,360968,0.0-6.0-81.0,"""","""","""","""","""","""","""","""","""","""","""","""","2021-08-13 22:30:50",70.191.38.13,"Mozilla/5.0 (Windows NT 10.0; Win64; x64) AppleWebKit/537.36 (KHTML, like Gecko) Chrome/92.0.4515.107 Safari/537.36",WebKit,Chrome,92.0.4515.107,Windows,10.0,5f461dd6c139dd6b46c7596cbd57cd79
211,1,"""","""","""","""","""",sampler,88,360968,0.0-6.0-82.0,"""","""","""","""","""","""","""","""","""","""","""","""","2021-08-13 22:30:50",70.191.38.13,"Mozilla/5.0 (Windows NT 10.0; Win64; x64) AppleWebKit/537.36 (KHTML, like Gecko) Chrome/92.0.4515.107 Safari/537.36",WebKit,Chrome,92.0.4515.107,Windows,10.0,5f461dd6c139dd6b46c7596cbd57cd79
211,1,"""","""","""","""","""",sampler,89,360968,0.0-6.0-83.0,"""","""","""","""","""","""","""","""","""","""","""","""","2021-08-13 22:30:50",70.191.38.13,"Mozilla/5.0 (Windows NT 10.0; Win64; x64) AppleWebKit/537.36 (KHTML, like Gecko) Chrome/92.0.4515.107 Safari/537.36",WebKit,Chrome,92.0.4515.107,Windows,10.0,5f461dd6c139dd6b46c7596cbd57cd79
211,1,"""","""","""","""","""",sampler,90,360968,0.0-6.0-84.0,"""","""","""","""","""","""","""","""","""","""","""","""","2021-08-13 22:30:50",70.191.38.13,"Mozilla/5.0 (Windows NT 10.0; Win64; x64) AppleWebKit/537.36 (KHTML, like Gecko) Chrome/92.0.4515.107 Safari/537.36",WebKit,Chrome,92.0.4515.107,Windows,10.0,5f461dd6c139dd6b46c7596cbd57cd79
211,1,"""","""","""","""","""",sampler,91,360968,0.0-6.0-85.0,"""","""","""","""","""","""","""","""","""","""","""","""","2021-08-13 22:30:50",70.191.38.13,"Mozilla/5.0 (Windows NT 10.0; Win64; x64) AppleWebKit/537.36 (KHTML, like Gecko) Chrome/92.0.4515.107 Safari/537.36",WebKit,Chrome,92.0.4515.107,Windows,10.0,5f461dd6c139dd6b46c7596cbd57cd79
211,1,"""","""","""","""","""",sampler,92,360968,0.0-6.0-86.0,"""","""","""","""","""","""","""","""","""","""","""","""","2021-08-13 22:30:50",70.191.38.13,"Mozilla/5.0 (Windows NT 10.0; Win64; x64) AppleWebKit/537.36 (KHTML, like Gecko) Chrome/92.0.4515.107 Safari/537.36",WebKit,Chrome,92.0.4515.107,Windows,10.0,5f461dd6c139dd6b46c7596cbd57cd79
211,1,"""","""","""","""","""",sampler,93,360968,0.0-6.0-87.0,"""","""","""","""","""","""","""","""","""","""","""","""","2021-08-13 22:30:50",70.191.38.13,"Mozilla/5.0 (Windows NT 10.0; Win64; x64) AppleWebKit/537.36 (KHTML, like Gecko) Chrome/92.0.4515.107 Safari/537.36",WebKit,Chrome,92.0.4515.107,Windows,10.0,5f461dd6c139dd6b46c7596cbd57cd79
211,1,"""","""","""","""","""",sampler,94,360968,0.0-6.0-88.0,"""","""","""","""","""","""","""","""","""","""","""","""","2021-08-13 22:30:50",70.191.38.13,"Mozilla/5.0 (Windows NT 10.0; Win64; x64) AppleWebKit/537.36 (KHTML, like Gecko) Chrome/92.0.4515.107 Safari/537.36",WebKit,Chrome,92.0.4515.107,Windows,10.0,5f461dd6c139dd6b46c7596cbd57cd79
211,1,"""","""","""","""","""",sampler,95,360968,0.0-6.0-89.0,"""","""","""","""","""","""","""","""","""","""","""","""","2021-08-13 22:30:50",70.191.38.13,"Mozilla/5.0 (Windows NT 10.0; Win64; x64) AppleWebKit/537.36 (KHTML, like Gecko) Chrome/92.0.4515.107 Safari/537.36",WebKit,Chrome,92.0.4515.107,Windows,10.0,5f461dd6c139dd6b46c7596cbd57cd79
211,1,"""","""","""","""","""",sampler,96,360968,0.0-6.0-90.0,"""","""","""","""","""","""","""","""","""","""","""","""","2021-08-13 22:30:50",70.191.38.13,"Mozilla/5.0 (Windows NT 10.0; Win64; x64) AppleWebKit/537.36 (KHTML, like Gecko) Chrome/92.0.4515.107 Safari/537.36",WebKit,Chrome,92.0.4515.107,Windows,10.0,5f461dd6c139dd6b46c7596cbd57cd79
211,1,"""","""","""","""","""",sampler,97,360969,0.0-6.0-91.0,"""","""","""","""","""","""","""","""","""","""","""","""","2021-08-13 22:30:50",70.191.38.13,"Mozilla/5.0 (Windows NT 10.0; Win64; x64) AppleWebKit/537.36 (KHTML, like Gecko) Chrome/92.0.4515.107 Safari/537.36",WebKit,Chrome,92.0.4515.107,Windows,10.0,5f461dd6c139dd6b46c7596cbd57cd79
211,1,"""","""","""","""","""",sampler,98,360969,0.0-6.0-92.0,"""","""","""","""","""","""","""","""","""","""","""","""","2021-08-13 22:30:50",70.191.38.13,"Mozilla/5.0 (Windows NT 10.0; Win64; x64) AppleWebKit/537.36 (KHTML, like Gecko) Chrome/92.0.4515.107 Safari/537.36",WebKit,Chrome,92.0.4515.107,Windows,10.0,5f461dd6c139dd6b46c7596cbd57cd79
211,1,"""","""","""","""","""",sampler,99,360969,0.0-6.0-93.0,"""","""","""","""","""","""","""","""","""","""","""","""","2021-08-13 22:30:50",70.191.38.13,"Mozilla/5.0 (Windows NT 10.0; Win64; x64) AppleWebKit/537.36 (KHTML, like Gecko) Chrome/92.0.4515.107 Safari/537.36",WebKit,Chrome,92.0.4515.107,Windows,10.0,5f461dd6c139dd6b46c7596cbd57cd79
211,1,"""","""","""","""","""",sampler,100,360969,0.0-6.0-94.0,"""","""","""","""","""","""","""","""","""","""","""","""","2021-08-13 22:30:50",70.191.38.13,"Mozilla/5.0 (Windows NT 10.0; Win64; x64) AppleWebKit/537.36 (KHTML, like Gecko) Chrome/92.0.4515.107 Safari/537.36",WebKit,Chrome,92.0.4515.107,Windows,10.0,5f461dd6c139dd6b46c7596cbd57cd79
211,1,"""","""","""","""","""",sampler,101,360969,0.0-6.0-95.0,"""","""","""","""","""","""","""","""","""","""","""","""","2021-08-13 22:30:50",70.191.38.13,"Mozilla/5.0 (Windows NT 10.0; Win64; x64) AppleWebKit/537.36 (KHTML, like Gecko) Chrome/92.0.4515.107 Safari/537.36",WebKit,Chrome,92.0.4515.107,Windows,10.0,5f461dd6c139dd6b46c7596cbd57cd79
211,1,"""","""","""","""","""",sampler,102,360969,0.0-6.0-96.0,"""","""","""","""","""","""","""","""","""","""","""","""","2021-08-13 22:30:50",70.191.38.13,"Mozilla/5.0 (Windows NT 10.0; Win64; x64) AppleWebKit/537.36 (KHTML, like Gecko) Chrome/92.0.4515.107 Safari/537.36",WebKit,Chrome,92.0.4515.107,Windows,10.0,5f461dd6c139dd6b46c7596cbd57cd79
211,1,"""","""","""","""","""",sampler,103,360969,0.0-6.0-97.0,"""","""","""","""","""","""","""","""","""","""","""","""","2021-08-13 22:30:50",70.191.38.13,"Mozilla/5.0 (Windows NT 10.0; Win64; x64) AppleWebKit/537.36 (KHTML, like Gecko) Chrome/92.0.4515.107 Safari/537.36",WebKit,Chrome,92.0.4515.107,Windows,10.0,5f461dd6c139dd6b46c7596cbd57cd79
211,1,"""","""","""","""","""",sampler,104,360969,0.0-6.0-98.0,"""","""","""","""","""","""","""","""","""","""","""","""","2021-08-13 22:30:50",70.191.38.13,"Mozilla/5.0 (Windows NT 10.0; Win64; x64) AppleWebKit/537.36 (KHTML, like Gecko) Chrome/92.0.4515.107 Safari/537.36",WebKit,Chrome,92.0.4515.107,Windows,10.0,5f461dd6c139dd6b46c7596cbd57cd79
211,1,"""","""","""","""","""",sampler,105,360969,0.0-6.0-99.0,"""","""","""","""","""","""","""","""","""","""","""","""","2021-08-13 22:30:50",70.191.38.13,"Mozilla/5.0 (Windows NT 10.0; Win64; x64) AppleWebKit/537.36 (KHTML, like Gecko) Chrome/92.0.4515.107 Safari/537.36",WebKit,Chrome,92.0.4515.107,Windows,10.0,5f461dd6c139dd6b46c7596cbd57cd79
211,1,"""","""","""","""","""",sampler,106,360969,0.0-6.0-100.0,"""","""","""","""","""","""","""","""","""","""","""","""","2021-08-13 22:30:50",70.191.38.13,"Mozilla/5.0 (Windows NT 10.0; Win64; x64) AppleWebKit/537.36 (KHTML, like Gecko) Chrome/92.0.4515.107 Safari/537.36",WebKit,Chrome,92.0.4515.107,Windows,10.0,5f461dd6c139dd6b46c7596cbd57cd79
211,1,"""","""","""","""","""",sampler,107,360969,0.0-6.0-101.0,"""","""","""","""","""","""","""","""","""","""","""","""","2021-08-13 22:30:50",70.191.38.13,"Mozilla/5.0 (Windows NT 10.0; Win64; x64) AppleWebKit/537.36 (KHTML, like Gecko) Chrome/92.0.4515.107 Safari/537.36",WebKit,Chrome,92.0.4515.107,Windows,10.0,5f461dd6c139dd6b46c7596cbd57cd79
211,1,"""","""","""","""","""",sampler,108,360969,0.0-6.0-102.0,"""","""","""","""","""","""","""","""","""","""","""","""","2021-08-13 22:30:50",70.191.38.13,"Mozilla/5.0 (Windows NT 10.0; Win64; x64) AppleWebKit/537.36 (KHTML, like Gecko) Chrome/92.0.4515.107 Safari/537.36",WebKit,Chrome,92.0.4515.107,Windows,10.0,5f461dd6c139dd6b46c7596cbd57cd79
211,1,"""","""","""","""","""",sampler,109,360969,0.0-6.0-103.0,"""","""","""","""","""","""","""","""","""","""","""","""","2021-08-13 22:30:50",70.191.38.13,"Mozilla/5.0 (Windows NT 10.0; Win64; x64) AppleWebKit/537.36 (KHTML, like Gecko) Chrome/92.0.4515.107 Safari/537.36",WebKit,Chrome,92.0.4515.107,Windows,10.0,5f461dd6c139dd6b46c7596cbd57cd79
211,1,"""","""","""","""","""",sampler,110,360969,0.0-6.0-104.0,"""","""","""","""","""","""","""","""","""","""","""","""","2021-08-13 22:30:50",70.191.38.13,"Mozilla/5.0 (Windows NT 10.0; Win64; x64) AppleWebKit/537.36 (KHTML, like Gecko) Chrome/92.0.4515.107 Safari/537.36",WebKit,Chrome,92.0.4515.107,Windows,10.0,5f461dd6c139dd6b46c7596cbd57cd79
211,1,"""","""","""","""","""",sampler,111,360970,0.0-6.0-105.0,"""","""","""","""","""","""","""","""","""","""","""","""","2021-08-13 22:30:50",70.191.38.13,"Mozilla/5.0 (Windows NT 10.0; Win64; x64) AppleWebKit/537.36 (KHTML, like Gecko) Chrome/92.0.4515.107 Safari/537.36",WebKit,Chrome,92.0.4515.107,Windows,10.0,5f461dd6c139dd6b46c7596cbd57cd79
211,1,"""","""","""","""","""",sampler,112,360970,0.0-6.0-106.0,"""","""","""","""","""","""","""","""","""","""","""","""","2021-08-13 22:30:50",70.191.38.13,"Mozilla/5.0 (Windows NT 10.0; Win64; x64) AppleWebKit/537.36 (KHTML, like Gecko) Chrome/92.0.4515.107 Safari/537.36",WebKit,Chrome,92.0.4515.107,Windows,10.0,5f461dd6c139dd6b46c7596cbd57cd79
211,1,"""","""","""","""","""",sampler,113,360970,0.0-6.0-107.0,"""","""","""","""","""","""","""","""","""","""","""","""","2021-08-13 22:30:50",70.191.38.13,"Mozilla/5.0 (Windows NT 10.0; Win64; x64) AppleWebKit/537.36 (KHTML, like Gecko) Chrome/92.0.4515.107 Safari/537.36",WebKit,Chrome,92.0.4515.107,Windows,10.0,5f461dd6c139dd6b46c7596cbd57cd79
211,1,"""","""","""","""","""",sampler,114,360970,0.0-6.0-108.0,"""","""","""","""","""","""","""","""","""","""","""","""","2021-08-13 22:30:50",70.191.38.13,"Mozilla/5.0 (Windows NT 10.0; Win64; x64) AppleWebKit/537.36 (KHTML, like Gecko) Chrome/92.0.4515.107 Safari/537.36",WebKit,Chrome,92.0.4515.107,Windows,10.0,5f461dd6c139dd6b46c7596cbd57cd79
211,1,"""","""","""","""","""",sampler,115,360970,0.0-6.0-109.0,"""","""","""","""","""","""","""","""","""","""","""","""","2021-08-13 22:30:50",70.191.38.13,"Mozilla/5.0 (Windows NT 10.0; Win64; x64) AppleWebKit/537.36 (KHTML, like Gecko) Chrome/92.0.4515.107 Safari/537.36",WebKit,Chrome,92.0.4515.107,Windows,10.0,5f461dd6c139dd6b46c7596cbd57cd79
211,1,"""","""","""","""","""",sampler,116,360970,0.0-6.0-110.0,"""","""","""","""","""","""","""","""","""","""","""","""","2021-08-13 22:30:50",70.191.38.13,"Mozilla/5.0 (Windows NT 10.0; Win64; x64) AppleWebKit/537.36 (KHTML, like Gecko) Chrome/92.0.4515.107 Safari/537.36",WebKit,Chrome,92.0.4515.107,Windows,10.0,5f461dd6c139dd6b46c7596cbd57cd79
211,1,"""","""","""","""","""",sampler,117,360970,0.0-6.0-111.0,"""","""","""","""","""","""","""","""","""","""","""","""","2021-08-13 22:30:50",70.191.38.13,"Mozilla/5.0 (Windows NT 10.0; Win64; x64) AppleWebKit/537.36 (KHTML, like Gecko) Chrome/92.0.4515.107 Safari/537.36",WebKit,Chrome,92.0.4515.107,Windows,10.0,5f461dd6c139dd6b46c7596cbd57cd79
211,1,"""","""","""","""","""",sampler,118,360970,0.0-6.0-112.0,"""","""","""","""","""","""","""","""","""","""","""","""","2021-08-13 22:30:50",70.191.38.13,"Mozilla/5.0 (Windows NT 10.0; Win64; x64) AppleWebKit/537.36 (KHTML, like Gecko) Chrome/92.0.4515.107 Safari/537.36",WebKit,Chrome,92.0.4515.107,Windows,10.0,5f461dd6c139dd6b46c7596cbd57cd79
211,1,"""","""","""","""","""",sampler,119,360970,0.0-6.0-113.0,"""","""","""","""","""","""","""","""","""","""","""","""","2021-08-13 22:30:50",70.191.38.13,"Mozilla/5.0 (Windows NT 10.0; Win64; x64) AppleWebKit/537.36 (KHTML, like Gecko) Chrome/92.0.4515.107 Safari/537.36",WebKit,Chrome,92.0.4515.107,Windows,10.0,5f461dd6c139dd6b46c7596cbd57cd79
211,1,"""","""","""","""","""",sampler,120,360970,0.0-6.0-114.0,"""","""","""","""","""","""","""","""","""","""","""","""","2021-08-13 22:30:50",70.191.38.13,"Mozilla/5.0 (Windows NT 10.0; Win64; x64) AppleWebKit/537.36 (KHTML, like Gecko) Chrome/92.0.4515.107 Safari/537.36",WebKit,Chrome,92.0.4515.107,Windows,10.0,5f461dd6c139dd6b46c7596cbd57cd79
211,1,"""","""","""","""","""",sampler,121,360970,0.0-6.0-115.0,"""","""","""","""","""","""","""","""","""","""","""","""","2021-08-13 22:30:50",70.191.38.13,"Mozilla/5.0 (Windows NT 10.0; Win64; x64) AppleWebKit/537.36 (KHTML, like Gecko) Chrome/92.0.4515.107 Safari/537.36",WebKit,Chrome,92.0.4515.107,Windows,10.0,5f461dd6c139dd6b46c7596cbd57cd79
211,1,"""","""","""","""","""",sampler,122,360970,0.0-6.0-116.0,"""","""","""","""","""","""","""","""","""","""","""","""","2021-08-13 22:30:50",70.191.38.13,"Mozilla/5.0 (Windows NT 10.0; Win64; x64) AppleWebKit/537.36 (KHTML, like Gecko) Chrome/92.0.4515.107 Safari/537.36",WebKit,Chrome,92.0.4515.107,Windows,10.0,5f461dd6c139dd6b46c7596cbd57cd79
211,1,"""","""","""","""","""",sampler,123,360970,0.0-6.0-117.0,"""","""","""","""","""","""","""","""","""","""","""","""","2021-08-13 22:30:50",70.191.38.13,"Mozilla/5.0 (Windows NT 10.0; Win64; x64) AppleWebKit/537.36 (KHTML, like Gecko) Chrome/92.0.4515.107 Safari/537.36",WebKit,Chrome,92.0.4515.107,Windows,10.0,5f461dd6c139dd6b46c7596cbd57cd79
211,1,"""","""","""","""","""",sampler,124,360970,0.0-6.0-118.0,"""","""","""","""","""","""","""","""","""","""","""","""","2021-08-13 22:30:50",70.191.38.13,"Mozilla/5.0 (Windows NT 10.0; Win64; x64) AppleWebKit/537.36 (KHTML, like Gecko) Chrome/92.0.4515.107 Safari/537.36",WebKit,Chrome,92.0.4515.107,Windows,10.0,5f461dd6c139dd6b46c7596cbd57cd79
211,1,"""","""","""","""","""",sampler,125,360970,0.0-6.0-119.0,"""","""","""","""","""","""","""","""","""","""","""","""","2021-08-13 22:30:50",70.191.38.13,"Mozilla/5.0 (Windows NT 10.0; Win64; x64) AppleWebKit/537.36 (KHTML, like Gecko) Chrome/92.0.4515.107 Safari/537.36",WebKit,Chrome,92.0.4515.107,Windows,10.0,5f461dd6c139dd6b46c7596cbd57cd79
211,1,"""","""","""","""","""",sampler,126,360970,0.0-6.0-120.0,"""","""","""","""","""","""","""","""","""","""","""","""","2021-08-13 22:30:50",70.191.38.13,"Mozilla/5.0 (Windows NT 10.0; Win64; x64) AppleWebKit/537.36 (KHTML, like Gecko) Chrome/92.0.4515.107 Safari/537.36",WebKit,Chrome,92.0.4515.107,Windows,10.0,5f461dd6c139dd6b46c7596cbd57cd79
211,1,"""","""","""","""","""",sampler,127,360971,0.0-6.0-121.0,"""","""","""","""","""","""","""","""","""","""","""","""","2021-08-13 22:30:50",70.191.38.13,"Mozilla/5.0 (Windows NT 10.0; Win64; x64) AppleWebKit/537.36 (KHTML, like Gecko) Chrome/92.0.4515.107 Safari/537.36",WebKit,Chrome,92.0.4515.107,Windows,10.0,5f461dd6c139dd6b46c7596cbd57cd79
211,1,"""","""","""","""","""",sampler,128,360971,0.0-6.0-122.0,"""","""","""","""","""","""","""","""","""","""","""","""","2021-08-13 22:30:50",70.191.38.13,"Mozilla/5.0 (Windows NT 10.0; Win64; x64) AppleWebKit/537.36 (KHTML, like Gecko) Chrome/92.0.4515.107 Safari/537.36",WebKit,Chrome,92.0.4515.107,Windows,10.0,5f461dd6c139dd6b46c7596cbd57cd79
211,1,"""","""","""","""","""",sampler,129,360971,0.0-6.0-123.0,"""","""","""","""","""","""","""","""","""","""","""","""","2021-08-13 22:30:50",70.191.38.13,"Mozilla/5.0 (Windows NT 10.0; Win64; x64) AppleWebKit/537.36 (KHTML, like Gecko) Chrome/92.0.4515.107 Safari/537.36",WebKit,Chrome,92.0.4515.107,Windows,10.0,5f461dd6c139dd6b46c7596cbd57cd79
211,1,"""","""","""","""","""",sampler,130,360971,0.0-6.0-124.0,"""","""","""","""","""","""","""","""","""","""","""","""","2021-08-13 22:30:50",70.191.38.13,"Mozilla/5.0 (Windows NT 10.0; Win64; x64) AppleWebKit/537.36 (KHTML, like Gecko) Chrome/92.0.4515.107 Safari/537.36",WebKit,Chrome,92.0.4515.107,Windows,10.0,5f461dd6c139dd6b46c7596cbd57cd79
211,1,"""","""","""","""","""",sampler,131,360971,0.0-6.0-125.0,"""","""","""","""","""","""","""","""","""","""","""","""","2021-08-13 22:30:50",70.191.38.13,"Mozilla/5.0 (Windows NT 10.0; Win64; x64) AppleWebKit/537.36 (KHTML, like Gecko) Chrome/92.0.4515.107 Safari/537.36",WebKit,Chrome,92.0.4515.107,Windows,10.0,5f461dd6c139dd6b46c7596cbd57cd79
211,1,"""","""","""","""","""",sampler,132,360971,0.0-6.0-126.0,"""","""","""","""","""","""","""","""","""","""","""","""","2021-08-13 22:30:50",70.191.38.13,"Mozilla/5.0 (Windows NT 10.0; Win64; x64) AppleWebKit/537.36 (KHTML, like Gecko) Chrome/92.0.4515.107 Safari/537.36",WebKit,Chrome,92.0.4515.107,Windows,10.0,5f461dd6c139dd6b46c7596cbd57cd79
211,1,"""","""","""","""","""",sampler,133,360971,0.0-6.0-127.0,"""","""","""","""","""","""","""","""","""","""","""","""","2021-08-13 22:30:50",70.191.38.13,"Mozilla/5.0 (Windows NT 10.0; Win64; x64) AppleWebKit/537.36 (KHTML, like Gecko) Chrome/92.0.4515.107 Safari/537.36",WebKit,Chrome,92.0.4515.107,Windows,10.0,5f461dd6c139dd6b46c7596cbd57cd79
211,1,"""","""","""","""","""",sampler,134,360971,0.0-6.0-128.0,"""","""","""","""","""","""","""","""","""","""","""","""","2021-08-13 22:30:50",70.191.38.13,"Mozilla/5.0 (Windows NT 10.0; Win64; x64) AppleWebKit/537.36 (KHTML, like Gecko) Chrome/92.0.4515.107 Safari/537.36",WebKit,Chrome,92.0.4515.107,Windows,10.0,5f461dd6c139dd6b46c7596cbd57cd79
211,1,"""","""","""","""","""",sampler,135,360971,0.0-6.0-129.0,"""","""","""","""","""","""","""","""","""","""","""","""","2021-08-13 22:30:50",70.191.38.13,"Mozilla/5.0 (Windows NT 10.0; Win64; x64) AppleWebKit/537.36 (KHTML, like Gecko) Chrome/92.0.4515.107 Safari/537.36",WebKit,Chrome,92.0.4515.107,Windows,10.0,5f461dd6c139dd6b46c7596cbd57cd79
211,1,"""","""","""","""","""",sampler,136,360971,0.0-6.0-130.0,"""","""","""","""","""","""","""","""","""","""","""","""","2021-08-13 22:30:50",70.191.38.13,"Mozilla/5.0 (Windows NT 10.0; Win64; x64) AppleWebKit/537.36 (KHTML, like Gecko) Chrome/92.0.4515.107 Safari/537.36",WebKit,Chrome,92.0.4515.107,Windows,10.0,5f461dd6c139dd6b46c7596cbd57cd79
211,1,"""","""","""","""","""",sampler,137,360971,0.0-6.0-131.0,"""","""","""","""","""","""","""","""","""","""","""","""","2021-08-13 22:30:50",70.191.38.13,"Mozilla/5.0 (Windows NT 10.0; Win64; x64) AppleWebKit/537.36 (KHTML, like Gecko) Chrome/92.0.4515.107 Safari/537.36",WebKit,Chrome,92.0.4515.107,Windows,10.0,5f461dd6c139dd6b46c7596cbd57cd79
211,1,"""","""","""","""","""",sampler,138,360971,0.0-6.0-132.0,"""","""","""","""","""","""","""","""","""","""","""","""","2021-08-13 22:30:50",70.191.38.13,"Mozilla/5.0 (Windows NT 10.0; Win64; x64) AppleWebKit/537.36 (KHTML, like Gecko) Chrome/92.0.4515.107 Safari/537.36",WebKit,Chrome,92.0.4515.107,Windows,10.0,5f461dd6c139dd6b46c7596cbd57cd79
211,1,"""","""","""","""","""",sampler,139,360971,0.0-6.0-133.0,"""","""","""","""","""","""","""","""","""","""","""","""","2021-08-13 22:30:50",70.191.38.13,"Mozilla/5.0 (Windows NT 10.0; Win64; x64) AppleWebKit/537.36 (KHTML, like Gecko) Chrome/92.0.4515.107 Safari/537.36",WebKit,Chrome,92.0.4515.107,Windows,10.0,5f461dd6c139dd6b46c7596cbd57cd79
211,1,"""","""","""","""","""",sampler,140,360971,0.0-6.0-134.0,"""","""","""","""","""","""","""","""","""","""","""","""","2021-08-13 22:30:50",70.191.38.13,"Mozilla/5.0 (Windows NT 10.0; Win64; x64) AppleWebKit/537.36 (KHTML, like Gecko) Chrome/92.0.4515.107 Safari/537.36",WebKit,Chrome,92.0.4515.107,Windows,10.0,5f461dd6c139dd6b46c7596cbd57cd79
211,1,"""","""","""","""","""",sampler,141,360971,0.0-6.0-135.0,"""","""","""","""","""","""","""","""","""","""","""","""","2021-08-13 22:30:50",70.191.38.13,"Mozilla/5.0 (Windows NT 10.0; Win64; x64) AppleWebKit/537.36 (KHTML, like Gecko) Chrome/92.0.4515.107 Safari/537.36",WebKit,Chrome,92.0.4515.107,Windows,10.0,5f461dd6c139dd6b46c7596cbd57cd79
211,1,"""","""","""","""","""",sampler,142,360972,0.0-6.0-136.0,"""","""","""","""","""","""","""","""","""","""","""","""","2021-08-13 22:30:50",70.191.38.13,"Mozilla/5.0 (Windows NT 10.0; Win64; x64) AppleWebKit/537.36 (KHTML, like Gecko) Chrome/92.0.4515.107 Safari/537.36",WebKit,Chrome,92.0.4515.107,Windows,10.0,5f461dd6c139dd6b46c7596cbd57cd79
211,1,"""","""","""","""","""",sampler,143,360972,0.0-6.0-137.0,"""","""","""","""","""","""","""","""","""","""","""","""","2021-08-13 22:30:50",70.191.38.13,"Mozilla/5.0 (Windows NT 10.0; Win64; x64) AppleWebKit/537.36 (KHTML, like Gecko) Chrome/92.0.4515.107 Safari/537.36",WebKit,Chrome,92.0.4515.107,Windows,10.0,5f461dd6c139dd6b46c7596cbd57cd79
211,1,"""","""","""","""","""",sampler,144,360972,0.0-6.0-138.0,"""","""","""","""","""","""","""","""","""","""","""","""","2021-08-13 22:30:50",70.191.38.13,"Mozilla/5.0 (Windows NT 10.0; Win64; x64) AppleWebKit/537.36 (KHTML, like Gecko) Chrome/92.0.4515.107 Safari/537.36",WebKit,Chrome,92.0.4515.107,Windows,10.0,5f461dd6c139dd6b46c7596cbd57cd79
211,1,"""","""","""","""","""",sampler,145,360972,0.0-6.0-139.0,"""","""","""","""","""","""","""","""","""","""","""","""","2021-08-13 22:30:50",70.191.38.13,"Mozilla/5.0 (Windows NT 10.0; Win64; x64) AppleWebKit/537.36 (KHTML, like Gecko) Chrome/92.0.4515.107 Safari/537.36",WebKit,Chrome,92.0.4515.107,Windows,10.0,5f461dd6c139dd6b46c7596cbd57cd79
211,1,"""","""","""","""","""",sampler,146,360972,0.0-6.0-140.0,"""","""","""","""","""","""","""","""","""","""","""","""","2021-08-13 22:30:50",70.191.38.13,"Mozilla/5.0 (Windows NT 10.0; Win64; x64) AppleWebKit/537.36 (KHTML, like Gecko) Chrome/92.0.4515.107 Safari/537.36",WebKit,Chrome,92.0.4515.107,Windows,10.0,5f461dd6c139dd6b46c7596cbd57cd79
211,1,"""","""","""","""","""",sampler,147,360972,0.0-6.0-141.0,"""","""","""","""","""","""","""","""","""","""","""","""","2021-08-13 22:30:50",70.191.38.13,"Mozilla/5.0 (Windows NT 10.0; Win64; x64) AppleWebKit/537.36 (KHTML, like Gecko) Chrome/92.0.4515.107 Safari/537.36",WebKit,Chrome,92.0.4515.107,Windows,10.0,5f461dd6c139dd6b46c7596cbd57cd79
211,1,"""","""","""","""","""",sampler,148,360972,0.0-6.0-142.0,"""","""","""","""","""","""","""","""","""","""","""","""","2021-08-13 22:30:50",70.191.38.13,"Mozilla/5.0 (Windows NT 10.0; Win64; x64) AppleWebKit/537.36 (KHTML, like Gecko) Chrome/92.0.4515.107 Safari/537.36",WebKit,Chrome,92.0.4515.107,Windows,10.0,5f461dd6c139dd6b46c7596cbd57cd79
211,1,"""","""","""","""","""",sampler,149,360972,0.0-6.0-143.0,"""","""","""","""","""","""","""","""","""","""","""","""","2021-08-13 22:30:50",70.191.38.13,"Mozilla/5.0 (Windows NT 10.0; Win64; x64) AppleWebKit/537.36 (KHTML, like Gecko) Chrome/92.0.4515.107 Safari/537.36",WebKit,Chrome,92.0.4515.107,Windows,10.0,5f461dd6c139dd6b46c7596cbd57cd79
211,1,"""","""","""","""","""",sampler,150,360972,0.0-6.0-144.0,"""","""","""","""","""","""","""","""","""","""","""","""","2021-08-13 22:30:50",70.191.38.13,"Mozilla/5.0 (Windows NT 10.0; Win64; x64) AppleWebKit/537.36 (KHTML, like Gecko) Chrome/92.0.4515.107 Safari/537.36",WebKit,Chrome,92.0.4515.107,Windows,10.0,5f461dd6c139dd6b46c7596cbd57cd79
211,1,"""","""","""","""","""",sampler,151,360972,0.0-6.0-145.0,"""","""","""","""","""","""","""","""","""","""","""","""","2021-08-13 22:30:50",70.191.38.13,"Mozilla/5.0 (Windows NT 10.0; Win64; x64) AppleWebKit/537.36 (KHTML, like Gecko) Chrome/92.0.4515.107 Safari/537.36",WebKit,Chrome,92.0.4515.107,Windows,10.0,5f461dd6c139dd6b46c7596cbd57cd79
211,1,"""","""","""","""","""",sampler,152,360973,0.0-6.0-146.0,"""","""","""","""","""","""","""","""","""","""","""","""","2021-08-13 22:30:50",70.191.38.13,"Mozilla/5.0 (Windows NT 10.0; Win64; x64) AppleWebKit/537.36 (KHTML, like Gecko) Chrome/92.0.4515.107 Safari/537.36",WebKit,Chrome,92.0.4515.107,Windows,10.0,5f461dd6c139dd6b46c7596cbd57cd79
211,1,"""","""","""","""","""",sampler,153,360973,0.0-6.0-147.0,"""","""","""","""","""","""","""","""","""","""","""","""","2021-08-13 22:30:50",70.191.38.13,"Mozilla/5.0 (Windows NT 10.0; Win64; x64) AppleWebKit/537.36 (KHTML, like Gecko) Chrome/92.0.4515.107 Safari/537.36",WebKit,Chrome,92.0.4515.107,Windows,10.0,5f461dd6c139dd6b46c7596cbd57cd79
211,1,"""","""","""","""","""",sampler,154,360973,0.0-6.0-148.0,"""","""","""","""","""","""","""","""","""","""","""","""","2021-08-13 22:30:50",70.191.38.13,"Mozilla/5.0 (Windows NT 10.0; Win64; x64) AppleWebKit/537.36 (KHTML, like Gecko) Chrome/92.0.4515.107 Safari/537.36",WebKit,Chrome,92.0.4515.107,Windows,10.0,5f461dd6c139dd6b46c7596cbd57cd79
211,1,"""","""","""","""","""",sampler,155,360973,0.0-6.0-149.0,"""","""","""","""","""","""","""","""","""","""","""","""","2021-08-13 22:30:50",70.191.38.13,"Mozilla/5.0 (Windows NT 10.0; Win64; x64) AppleWebKit/537.36 (KHTML, like Gecko) Chrome/92.0.4515.107 Safari/537.36",WebKit,Chrome,92.0.4515.107,Windows,10.0,5f461dd6c139dd6b46c7596cbd57cd79
211,1,"""","""","""","""","""",sampler,156,360973,0.0-6.0-150.0,"""","""","""","""","""","""","""","""","""","""","""","""","2021-08-13 22:30:50",70.191.38.13,"Mozilla/5.0 (Windows NT 10.0; Win64; x64) AppleWebKit/537.36 (KHTML, like Gecko) Chrome/92.0.4515.107 Safari/537.36",WebKit,Chrome,92.0.4515.107,Windows,10.0,5f461dd6c139dd6b46c7596cbd57cd79
211,1,"""","""","""","""","""",sampler,157,360973,0.0-6.0-151.0,"""","""","""","""","""","""","""","""","""","""","""","""","2021-08-13 22:30:50",70.191.38.13,"Mozilla/5.0 (Windows NT 10.0; Win64; x64) AppleWebKit/537.36 (KHTML, like Gecko) Chrome/92.0.4515.107 Safari/537.36",WebKit,Chrome,92.0.4515.107,Windows,10.0,5f461dd6c139dd6b46c7596cbd57cd79
211,1,"""","""","""","""","""",sampler,158,360973,0.0-6.0-152.0,"""","""","""","""","""","""","""","""","""","""","""","""","2021-08-13 22:30:50",70.191.38.13,"Mozilla/5.0 (Windows NT 10.0; Win64; x64) AppleWebKit/537.36 (KHTML, like Gecko) Chrome/92.0.4515.107 Safari/537.36",WebKit,Chrome,92.0.4515.107,Windows,10.0,5f461dd6c139dd6b46c7596cbd57cd79
211,1,"""","""","""","""","""",sampler,159,360973,0.0-6.0-153.0,"""","""","""","""","""","""","""","""","""","""","""","""","2021-08-13 22:30:50",70.191.38.13,"Mozilla/5.0 (Windows NT 10.0; Win64; x64) AppleWebKit/537.36 (KHTML, like Gecko) Chrome/92.0.4515.107 Safari/537.36",WebKit,Chrome,92.0.4515.107,Windows,10.0,5f461dd6c139dd6b46c7596cbd57cd79
211,1,"""","""","""","""","""",sampler,160,360973,0.0-6.0-154.0,"""","""","""","""","""","""","""","""","""","""","""","""","2021-08-13 22:30:50",70.191.38.13,"Mozilla/5.0 (Windows NT 10.0; Win64; x64) AppleWebKit/537.36 (KHTML, like Gecko) Chrome/92.0.4515.107 Safari/537.36",WebKit,Chrome,92.0.4515.107,Windows,10.0,5f461dd6c139dd6b46c7596cbd57cd79
211,1,"""","""","""","""","""",sampler,161,360973,0.0-6.0-155.0,"""","""","""","""","""","""","""","""","""","""","""","""","2021-08-13 22:30:50",70.191.38.13,"Mozilla/5.0 (Windows NT 10.0; Win64; x64) AppleWebKit/537.36 (KHTML, like Gecko) Chrome/92.0.4515.107 Safari/537.36",WebKit,Chrome,92.0.4515.107,Windows,10.0,5f461dd6c139dd6b46c7596cbd57cd79
211,1,"""","""","""","""","""",sampler,162,360973,0.0-6.0-156.0,"""","""","""","""","""","""","""","""","""","""","""","""","2021-08-13 22:30:50",70.191.38.13,"Mozilla/5.0 (Windows NT 10.0; Win64; x64) AppleWebKit/537.36 (KHTML, like Gecko) Chrome/92.0.4515.107 Safari/537.36",WebKit,Chrome,92.0.4515.107,Windows,10.0,5f461dd6c139dd6b46c7596cbd57cd79
211,1,"""","""","""","""","""",sampler,163,360973,0.0-6.0-157.0,"""","""","""","""","""","""","""","""","""","""","""","""","2021-08-13 22:30:50",70.191.38.13,"Mozilla/5.0 (Windows NT 10.0; Win64; x64) AppleWebKit/537.36 (KHTML, like Gecko) Chrome/92.0.4515.107 Safari/537.36",WebKit,Chrome,92.0.4515.107,Windows,10.0,5f461dd6c139dd6b46c7596cbd57cd79
211,1,"""","""","""","""","""",sampler,164,360973,0.0-6.0-158.0,"""","""","""","""","""","""","""","""","""","""","""","""","2021-08-13 22:30:50",70.191.38.13,"Mozilla/5.0 (Windows NT 10.0; Win64; x64) AppleWebKit/537.36 (KHTML, like Gecko) Chrome/92.0.4515.107 Safari/537.36",WebKit,Chrome,92.0.4515.107,Windows,10.0,5f461dd6c139dd6b46c7596cbd57cd79
211,1,"""","""","""","""","""",sampler,165,360973,0.0-6.0-159.0,"""","""","""","""","""","""","""","""","""","""","""","""","2021-08-13 22:30:50",70.191.38.13,"Mozilla/5.0 (Windows NT 10.0; Win64; x64) AppleWebKit/537.36 (KHTML, like Gecko) Chrome/92.0.4515.107 Safari/537.36",WebKit,Chrome,92.0.4515.107,Windows,10.0,5f461dd6c139dd6b46c7596cbd57cd79
211,1,"""","""","""","""","""",sampler,166,360973,0.0-6.0-160.0,"""","""","""","""","""","""","""","""","""","""","""","""","2021-08-13 22:30:50",70.191.38.13,"Mozilla/5.0 (Windows NT 10.0; Win64; x64) AppleWebKit/537.36 (KHTML, like Gecko) Chrome/92.0.4515.107 Safari/537.36",WebKit,Chrome,92.0.4515.107,Windows,10.0,5f461dd6c139dd6b46c7596cbd57cd79
211,1,"""","""","""","""","""",sampler,167,360973,0.0-6.0-161.0,"""","""","""","""","""","""","""","""","""","""","""","""","2021-08-13 22:30:50",70.191.38.13,"Mozilla/5.0 (Windows NT 10.0; Win64; x64) AppleWebKit/537.36 (KHTML, like Gecko) Chrome/92.0.4515.107 Safari/537.36",WebKit,Chrome,92.0.4515.107,Windows,10.0,5f461dd6c139dd6b46c7596cbd57cd79
211,1,"""","""","""","""","""",sampler,168,360973,0.0-6.0-162.0,"""","""","""","""","""","""","""","""","""","""","""","""","2021-08-13 22:30:50",70.191.38.13,"Mozilla/5.0 (Windows NT 10.0; Win64; x64) AppleWebKit/537.36 (KHTML, like Gecko) Chrome/92.0.4515.107 Safari/537.36",WebKit,Chrome,92.0.4515.107,Windows,10.0,5f461dd6c139dd6b46c7596cbd57cd79
211,1,"""","""","""","""","""",sampler,169,360973,0.0-6.0-163.0,"""","""","""","""","""","""","""","""","""","""","""","""","2021-08-13 22:30:50",70.191.38.13,"Mozilla/5.0 (Windows NT 10.0; Win64; x64) AppleWebKit/537.36 (KHTML, like Gecko) Chrome/92.0.4515.107 Safari/537.36",WebKit,Chrome,92.0.4515.107,Windows,10.0,5f461dd6c139dd6b46c7596cbd57cd79
211,1,"""","""","""","""","""",sampler,170,360973,0.0-6.0-164.0,"""","""","""","""","""","""","""","""","""","""","""","""","2021-08-13 22:30:50",70.191.38.13,"Mozilla/5.0 (Windows NT 10.0; Win64; x64) AppleWebKit/537.36 (KHTML, like Gecko) Chrome/92.0.4515.107 Safari/537.36",WebKit,Chrome,92.0.4515.107,Windows,10.0,5f461dd6c139dd6b46c7596cbd57cd79
211,1,"""","""","""","""","""",sampler,171,360973,0.0-6.0-165.0,"""","""","""","""","""","""","""","""","""","""","""","""","2021-08-13 22:30:50",70.191.38.13,"Mozilla/5.0 (Windows NT 10.0; Win64; x64) AppleWebKit/537.36 (KHTML, like Gecko) Chrome/92.0.4515.107 Safari/537.36",WebKit,Chrome,92.0.4515.107,Windows,10.0,5f461dd6c139dd6b46c7596cbd57cd79
211,1,"""","""","""","""","""",sampler,172,360974,0.0-6.0-166.0,"""","""","""","""","""","""","""","""","""","""","""","""","2021-08-13 22:30:50",70.191.38.13,"Mozilla/5.0 (Windows NT 10.0; Win64; x64) AppleWebKit/537.36 (KHTML, like Gecko) Chrome/92.0.4515.107 Safari/537.36",WebKit,Chrome,92.0.4515.107,Windows,10.0,5f461dd6c139dd6b46c7596cbd57cd79
211,1,"""","""","""","""","""",sampler,173,360974,0.0-6.0-167.0,"""","""","""","""","""","""","""","""","""","""","""","""","2021-08-13 22:30:50",70.191.38.13,"Mozilla/5.0 (Windows NT 10.0; Win64; x64) AppleWebKit/537.36 (KHTML, like Gecko) Chrome/92.0.4515.107 Safari/537.36",WebKit,Chrome,92.0.4515.107,Windows,10.0,5f461dd6c139dd6b46c7596cbd57cd79
211,1,"""","""","""","""","""",sampler,174,360974,0.0-6.0-168.0,"""","""","""","""","""","""","""","""","""","""","""","""","2021-08-13 22:30:50",70.191.38.13,"Mozilla/5.0 (Windows NT 10.0; Win64; x64) AppleWebKit/537.36 (KHTML, like Gecko) Chrome/92.0.4515.107 Safari/537.36",WebKit,Chrome,92.0.4515.107,Windows,10.0,5f461dd6c139dd6b46c7596cbd57cd79
211,1,"""","""","""","""","""",sampler,175,360974,0.0-6.0-169.0,"""","""","""","""","""","""","""","""","""","""","""","""","2021-08-13 22:30:50",70.191.38.13,"Mozilla/5.0 (Windows NT 10.0; Win64; x64) AppleWebKit/537.36 (KHTML, like Gecko) Chrome/92.0.4515.107 Safari/537.36",WebKit,Chrome,92.0.4515.107,Windows,10.0,5f461dd6c139dd6b46c7596cbd57cd79
211,1,"""","""","""","""","""",sampler,176,360974,0.0-6.0-170.0,"""","""","""","""","""","""","""","""","""","""","""","""","2021-08-13 22:30:50",70.191.38.13,"Mozilla/5.0 (Windows NT 10.0; Win64; x64) AppleWebKit/537.36 (KHTML, like Gecko) Chrome/92.0.4515.107 Safari/537.36",WebKit,Chrome,92.0.4515.107,Windows,10.0,5f461dd6c139dd6b46c7596cbd57cd79
211,1,"""","""","""","""","""",sampler,177,360974,0.0-6.0-171.0,"""","""","""","""","""","""","""","""","""","""","""","""","2021-08-13 22:30:50",70.191.38.13,"Mozilla/5.0 (Windows NT 10.0; Win64; x64) AppleWebKit/537.36 (KHTML, like Gecko) Chrome/92.0.4515.107 Safari/537.36",WebKit,Chrome,92.0.4515.107,Windows,10.0,5f461dd6c139dd6b46c7596cbd57cd79
211,1,"""","""","""","""","""",sampler,178,360974,0.0-6.0-172.0,"""","""","""","""","""","""","""","""","""","""","""","""","2021-08-13 22:30:50",70.191.38.13,"Mozilla/5.0 (Windows NT 10.0; Win64; x64) AppleWebKit/537.36 (KHTML, like Gecko) Chrome/92.0.4515.107 Safari/537.36",WebKit,Chrome,92.0.4515.107,Windows,10.0,5f461dd6c139dd6b46c7596cbd57cd79
211,1,"""","""","""","""","""",sampler,179,360974,0.0-6.0-173.0,"""","""","""","""","""","""","""","""","""","""","""","""","2021-08-13 22:30:50",70.191.38.13,"Mozilla/5.0 (Windows NT 10.0; Win64; x64) AppleWebKit/537.36 (KHTML, like Gecko) Chrome/92.0.4515.107 Safari/537.36",WebKit,Chrome,92.0.4515.107,Windows,10.0,5f461dd6c139dd6b46c7596cbd57cd79
211,1,"""","""","""","""","""",sampler,180,360974,0.0-6.0-174.0,"""","""","""","""","""","""","""","""","""","""","""","""","2021-08-13 22:30:50",70.191.38.13,"Mozilla/5.0 (Windows NT 10.0; Win64; x64) AppleWebKit/537.36 (KHTML, like Gecko) Chrome/92.0.4515.107 Safari/537.36",WebKit,Chrome,92.0.4515.107,Windows,10.0,5f461dd6c139dd6b46c7596cbd57cd79
211,1,"""","""","""","""","""",sampler,181,360974,0.0-6.0-175.0,"""","""","""","""","""","""","""","""","""","""","""","""","2021-08-13 22:30:50",70.191.38.13,"Mozilla/5.0 (Windows NT 10.0; Win64; x64) AppleWebKit/537.36 (KHTML, like Gecko) Chrome/92.0.4515.107 Safari/537.36",WebKit,Chrome,92.0.4515.107,Windows,10.0,5f461dd6c139dd6b46c7596cbd57cd79
211,1,"""","""","""","""","""",sampler,182,360974,0.0-6.0-176.0,"""","""","""","""","""","""","""","""","""","""","""","""","2021-08-13 22:30:50",70.191.38.13,"Mozilla/5.0 (Windows NT 10.0; Win64; x64) AppleWebKit/537.36 (KHTML, like Gecko) Chrome/92.0.4515.107 Safari/537.36",WebKit,Chrome,92.0.4515.107,Windows,10.0,5f461dd6c139dd6b46c7596cbd57cd79
211,1,"""","""","""","""","""",sampler,183,360974,0.0-6.0-177.0,"""","""","""","""","""","""","""","""","""","""","""","""","2021-08-13 22:30:50",70.191.38.13,"Mozilla/5.0 (Windows NT 10.0; Win64; x64) AppleWebKit/537.36 (KHTML, like Gecko) Chrome/92.0.4515.107 Safari/537.36",WebKit,Chrome,92.0.4515.107,Windows,10.0,5f461dd6c139dd6b46c7596cbd57cd79
211,1,"""","""","""","""","""",sampler,184,360974,0.0-6.0-178.0,"""","""","""","""","""","""","""","""","""","""","""","""","2021-08-13 22:30:50",70.191.38.13,"Mozilla/5.0 (Windows NT 10.0; Win64; x64) AppleWebKit/537.36 (KHTML, like Gecko) Chrome/92.0.4515.107 Safari/537.36",WebKit,Chrome,92.0.4515.107,Windows,10.0,5f461dd6c139dd6b46c7596cbd57cd79
211,1,"""","""","""","""","""",sampler,185,360974,0.0-6.0-179.0,"""","""","""","""","""","""","""","""","""","""","""","""","2021-08-13 22:30:50",70.191.38.13,"Mozilla/5.0 (Windows NT 10.0; Win64; x64) AppleWebKit/537.36 (KHTML, like Gecko) Chrome/92.0.4515.107 Safari/537.36",WebKit,Chrome,92.0.4515.107,Windows,10.0,5f461dd6c139dd6b46c7596cbd57cd79
211,1,"""","""","""","""","""",sampler,186,360974,0.0-6.0-180.0,"""","""","""","""","""","""","""","""","""","""","""","""","2021-08-13 22:30:50",70.191.38.13,"Mozilla/5.0 (Windows NT 10.0; Win64; x64) AppleWebKit/537.36 (KHTML, like Gecko) Chrome/92.0.4515.107 Safari/537.36",WebKit,Chrome,92.0.4515.107,Windows,10.0,5f461dd6c139dd6b46c7596cbd57cd79
211,1,"""","""","""","""","""",sampler,187,360974,0.0-6.0-181.0,"""","""","""","""","""","""","""","""","""","""","""","""","2021-08-13 22:30:50",70.191.38.13,"Mozilla/5.0 (Windows NT 10.0; Win64; x64) AppleWebKit/537.36 (KHTML, like Gecko) Chrome/92.0.4515.107 Safari/537.36",WebKit,Chrome,92.0.4515.107,Windows,10.0,5f461dd6c139dd6b46c7596cbd57cd79
211,1,"""","""","""","""","""",sampler,188,360974,0.0-6.0-182.0,"""","""","""","""","""","""","""","""","""","""","""","""","2021-08-13 22:30:50",70.191.38.13,"Mozilla/5.0 (Windows NT 10.0; Win64; x64) AppleWebKit/537.36 (KHTML, like Gecko) Chrome/92.0.4515.107 Safari/537.36",WebKit,Chrome,92.0.4515.107,Windows,10.0,5f461dd6c139dd6b46c7596cbd57cd79
211,1,"""","""","""","""","""",sampler,189,360974,0.0-6.0-183.0,"""","""","""","""","""","""","""","""","""","""","""","""","2021-08-13 22:30:50",70.191.38.13,"Mozilla/5.0 (Windows NT 10.0; Win64; x64) AppleWebKit/537.36 (KHTML, like Gecko) Chrome/92.0.4515.107 Safari/537.36",WebKit,Chrome,92.0.4515.107,Windows,10.0,5f461dd6c139dd6b46c7596cbd57cd79
211,1,"""","""","""","""","""",sampler,190,360974,0.0-6.0-184.0,"""","""","""","""","""","""","""","""","""","""","""","""","2021-08-13 22:30:50",70.191.38.13,"Mozilla/5.0 (Windows NT 10.0; Win64; x64) AppleWebKit/537.36 (KHTML, like Gecko) Chrome/92.0.4515.107 Safari/537.36",WebKit,Chrome,92.0.4515.107,Windows,10.0,5f461dd6c139dd6b46c7596cbd57cd79
211,1,"""","""","""","""","""",sampler,191,360975,0.0-6.0-185.0,"""","""","""","""","""","""","""","""","""","""","""","""","2021-08-13 22:30:50",70.191.38.13,"Mozilla/5.0 (Windows NT 10.0; Win64; x64) AppleWebKit/537.36 (KHTML, like Gecko) Chrome/92.0.4515.107 Safari/537.36",WebKit,Chrome,92.0.4515.107,Windows,10.0,5f461dd6c139dd6b46c7596cbd57cd79
211,1,"""","""","""","""","""",sampler,192,360975,0.0-6.0-186.0,"""","""","""","""","""","""","""","""","""","""","""","""","2021-08-13 22:30:50",70.191.38.13,"Mozilla/5.0 (Windows NT 10.0; Win64; x64) AppleWebKit/537.36 (KHTML, like Gecko) Chrome/92.0.4515.107 Safari/537.36",WebKit,Chrome,92.0.4515.107,Windows,10.0,5f461dd6c139dd6b46c7596cbd57cd79
211,1,"""","""","""","""","""",sampler,193,360975,0.0-6.0-187.0,"""","""","""","""","""","""","""","""","""","""","""","""","2021-08-13 22:30:50",70.191.38.13,"Mozilla/5.0 (Windows NT 10.0; Win64; x64) AppleWebKit/537.36 (KHTML, like Gecko) Chrome/92.0.4515.107 Safari/537.36",WebKit,Chrome,92.0.4515.107,Windows,10.0,5f461dd6c139dd6b46c7596cbd57cd79
211,1,"""","""","""","""","""",sampler,194,360975,0.0-6.0-188.0,"""","""","""","""","""","""","""","""","""","""","""","""","2021-08-13 22:30:50",70.191.38.13,"Mozilla/5.0 (Windows NT 10.0; Win64; x64) AppleWebKit/537.36 (KHTML, like Gecko) Chrome/92.0.4515.107 Safari/537.36",WebKit,Chrome,92.0.4515.107,Windows,10.0,5f461dd6c139dd6b46c7596cbd57cd79
211,1,"""","""","""","""","""",sampler,195,360975,0.0-6.0-189.0,"""","""","""","""","""","""","""","""","""","""","""","""","2021-08-13 22:30:50",70.191.38.13,"Mozilla/5.0 (Windows NT 10.0; Win64; x64) AppleWebKit/537.36 (KHTML, like Gecko) Chrome/92.0.4515.107 Safari/537.36",WebKit,Chrome,92.0.4515.107,Windows,10.0,5f461dd6c139dd6b46c7596cbd57cd79
211,1,"""","""","""","""","""",sampler,196,360975,0.0-6.0-190.0,"""","""","""","""","""","""","""","""","""","""","""","""","2021-08-13 22:30:50",70.191.38.13,"Mozilla/5.0 (Windows NT 10.0; Win64; x64) AppleWebKit/537.36 (KHTML, like Gecko) Chrome/92.0.4515.107 Safari/537.36",WebKit,Chrome,92.0.4515.107,Windows,10.0,5f461dd6c139dd6b46c7596cbd57cd79
211,1,"""","""","""","""","""",sampler,197,360975,0.0-6.0-191.0,"""","""","""","""","""","""","""","""","""","""","""","""","2021-08-13 22:30:50",70.191.38.13,"Mozilla/5.0 (Windows NT 10.0; Win64; x64) AppleWebKit/537.36 (KHTML, like Gecko) Chrome/92.0.4515.107 Safari/537.36",WebKit,Chrome,92.0.4515.107,Windows,10.0,5f461dd6c139dd6b46c7596cbd57cd79
211,1,"""","""","""","""","""",sampler,198,360975,0.0-6.0-192.0,"""","""","""","""","""","""","""","""","""","""","""","""","2021-08-13 22:30:50",70.191.38.13,"Mozilla/5.0 (Windows NT 10.0; Win64; x64) AppleWebKit/537.36 (KHTML, like Gecko) Chrome/92.0.4515.107 Safari/537.36",WebKit,Chrome,92.0.4515.107,Windows,10.0,5f461dd6c139dd6b46c7596cbd57cd79
211,1,"""","""","""","""","""",sampler,199,360975,0.0-6.0-193.0,"""","""","""","""","""","""","""","""","""","""","""","""","2021-08-13 22:30:50",70.191.38.13,"Mozilla/5.0 (Windows NT 10.0; Win64; x64) AppleWebKit/537.36 (KHTML, like Gecko) Chrome/92.0.4515.107 Safari/537.36",WebKit,Chrome,92.0.4515.107,Windows,10.0,5f461dd6c139dd6b46c7596cbd57cd79
211,1,"""","""","""","""","""",sampler,200,360975,0.0-6.0-194.0,"""","""","""","""","""","""","""","""","""","""","""","""","2021-08-13 22:30:50",70.191.38.13,"Mozilla/5.0 (Windows NT 10.0; Win64; x64) AppleWebKit/537.36 (KHTML, like Gecko) Chrome/92.0.4515.107 Safari/537.36",WebKit,Chrome,92.0.4515.107,Windows,10.0,5f461dd6c139dd6b46c7596cbd57cd79
211,1,"""","""","""","""","""",sampler,201,360975,0.0-6.0-195.0,"""","""","""","""","""","""","""","""","""","""","""","""","2021-08-13 22:30:50",70.191.38.13,"Mozilla/5.0 (Windows NT 10.0; Win64; x64) AppleWebKit/537.36 (KHTML, like Gecko) Chrome/92.0.4515.107 Safari/537.36",WebKit,Chrome,92.0.4515.107,Windows,10.0,5f461dd6c139dd6b46c7596cbd57cd79
211,1,"""","""","""","""","""",sampler,202,360975,0.0-6.0-196.0,"""","""","""","""","""","""","""","""","""","""","""","""","2021-08-13 22:30:50",70.191.38.13,"Mozilla/5.0 (Windows NT 10.0; Win64; x64) AppleWebKit/537.36 (KHTML, like Gecko) Chrome/92.0.4515.107 Safari/537.36",WebKit,Chrome,92.0.4515.107,Windows,10.0,5f461dd6c139dd6b46c7596cbd57cd79
211,1,"""","""","""","""","""",sampler,203,360975,0.0-6.0-197.0,"""","""","""","""","""","""","""","""","""","""","""","""","2021-08-13 22:30:50",70.191.38.13,"Mozilla/5.0 (Windows NT 10.0; Win64; x64) AppleWebKit/537.36 (KHTML, like Gecko) Chrome/92.0.4515.107 Safari/537.36",WebKit,Chrome,92.0.4515.107,Windows,10.0,5f461dd6c139dd6b46c7596cbd57cd79
211,1,"""","""","""","""","""",sampler,204,360975,0.0-6.0-198.0,"""","""","""","""","""","""","""","""","""","""","""","""","2021-08-13 22:30:50",70.191.38.13,"Mozilla/5.0 (Windows NT 10.0; Win64; x64) AppleWebKit/537.36 (KHTML, like Gecko) Chrome/92.0.4515.107 Safari/537.36",WebKit,Chrome,92.0.4515.107,Windows,10.0,5f461dd6c139dd6b46c7596cbd57cd79
211,1,"""","""","""","""","""",sampler,205,360975,0.0-6.0-199.0,"""","""","""","""","""","""","""","""","""","""","""","""","2021-08-13 22:30:50",70.191.38.13,"Mozilla/5.0 (Windows NT 10.0; Win64; x64) AppleWebKit/537.36 (KHTML, like Gecko) Chrome/92.0.4515.107 Safari/537.36",WebKit,Chrome,92.0.4515.107,Windows,10.0,5f461dd6c139dd6b46c7596cbd57cd79
211,1,"""","""","""","""","""",sampler,206,360975,0.0-6.0-200.0,"""","""","""","""","""","""","""","""","""","""","""","""","2021-08-13 22:30:50",70.191.38.13,"Mozilla/5.0 (Windows NT 10.0; Win64; x64) AppleWebKit/537.36 (KHTML, like Gecko) Chrome/92.0.4515.107 Safari/537.36",WebKit,Chrome,92.0.4515.107,Windows,10.0,5f461dd6c139dd6b46c7596cbd57cd79
211,1,"""","""","""","""","""",sampler,207,360975,0.0-6.0-201.0,"""","""","""","""","""","""","""","""","""","""","""","""","2021-08-13 22:30:50",70.191.38.13,"Mozilla/5.0 (Windows NT 10.0; Win64; x64) AppleWebKit/537.36 (KHTML, like Gecko) Chrome/92.0.4515.107 Safari/537.36",WebKit,Chrome,92.0.4515.107,Windows,10.0,5f461dd6c139dd6b46c7596cbd57cd79
211,1,"""","""","""","""","""",sampler,208,360975,0.0-6.0-202.0,"""","""","""","""","""","""","""","""","""","""","""","""","2021-08-13 22:30:50",70.191.38.13,"Mozilla/5.0 (Windows NT 10.0; Win64; x64) AppleWebKit/537.36 (KHTML, like Gecko) Chrome/92.0.4515.107 Safari/537.36",WebKit,Chrome,92.0.4515.107,Windows,10.0,5f461dd6c139dd6b46c7596cbd57cd79
211,1,"""","""","""","""","""",sampler,209,360975,0.0-6.0-203.0,"""","""","""","""","""","""","""","""","""","""","""","""","2021-08-13 22:30:50",70.191.38.13,"Mozilla/5.0 (Windows NT 10.0; Win64; x64) AppleWebKit/537.36 (KHTML, like Gecko) Chrome/92.0.4515.107 Safari/537.36",WebKit,Chrome,92.0.4515.107,Windows,10.0,5f461dd6c139dd6b46c7596cbd57cd79
211,1,"""","""","""","""","""",sampler,210,360976,0.0-6.0-204.0,"""","""","""","""","""","""","""","""","""","""","""","""","2021-08-13 22:30:50",70.191.38.13,"Mozilla/5.0 (Windows NT 10.0; Win64; x64) AppleWebKit/537.36 (KHTML, like Gecko) Chrome/92.0.4515.107 Safari/537.36",WebKit,Chrome,92.0.4515.107,Windows,10.0,5f461dd6c139dd6b46c7596cbd57cd79
211,1,"""","""","""","""","""",sampler,211,360976,0.0-6.0-205.0,"""","""","""","""","""","""","""","""","""","""","""","""","2021-08-13 22:30:50",70.191.38.13,"Mozilla/5.0 (Windows NT 10.0; Win64; x64) AppleWebKit/537.36 (KHTML, like Gecko) Chrome/92.0.4515.107 Safari/537.36",WebKit,Chrome,92.0.4515.107,Windows,10.0,5f461dd6c139dd6b46c7596cbd57cd79
211,1,"""","""","""","""","""",sampler,212,360976,0.0-6.0-206.0,"""","""","""","""","""","""","""","""","""","""","""","""","2021-08-13 22:30:50",70.191.38.13,"Mozilla/5.0 (Windows NT 10.0; Win64; x64) AppleWebKit/537.36 (KHTML, like Gecko) Chrome/92.0.4515.107 Safari/537.36",WebKit,Chrome,92.0.4515.107,Windows,10.0,5f461dd6c139dd6b46c7596cbd57cd79
211,1,"""","""","""","""","""",sampler,213,360976,0.0-6.0-207.0,"""","""","""","""","""","""","""","""","""","""","""","""","2021-08-13 22:30:50",70.191.38.13,"Mozilla/5.0 (Windows NT 10.0; Win64; x64) AppleWebKit/537.36 (KHTML, like Gecko) Chrome/92.0.4515.107 Safari/537.36",WebKit,Chrome,92.0.4515.107,Windows,10.0,5f461dd6c139dd6b46c7596cbd57cd79
211,1,"""","""","""","""","""",sampler,214,360976,0.0-6.0-208.0,"""","""","""","""","""","""","""","""","""","""","""","""","2021-08-13 22:30:50",70.191.38.13,"Mozilla/5.0 (Windows NT 10.0; Win64; x64) AppleWebKit/537.36 (KHTML, like Gecko) Chrome/92.0.4515.107 Safari/537.36",WebKit,Chrome,92.0.4515.107,Windows,10.0,5f461dd6c139dd6b46c7596cbd57cd79
211,1,"""","""","""","""","""",sampler,215,360976,0.0-6.0-209.0,"""","""","""","""","""","""","""","""","""","""","""","""","2021-08-13 22:30:50",70.191.38.13,"Mozilla/5.0 (Windows NT 10.0; Win64; x64) AppleWebKit/537.36 (KHTML, like Gecko) Chrome/92.0.4515.107 Safari/537.36",WebKit,Chrome,92.0.4515.107,Windows,10.0,5f461dd6c139dd6b46c7596cbd57cd79
211,1,"""","""","""","""","""",sampler,216,360976,0.0-6.0-210.0,"""","""","""","""","""","""","""","""","""","""","""","""","2021-08-13 22:30:50",70.191.38.13,"Mozilla/5.0 (Windows NT 10.0; Win64; x64) AppleWebKit/537.36 (KHTML, like Gecko) Chrome/92.0.4515.107 Safari/537.36",WebKit,Chrome,92.0.4515.107,Windows,10.0,5f461dd6c139dd6b46c7596cbd57cd79
211,1,"""","""","""","""","""",sampler,217,360976,0.0-6.0-211.0,"""","""","""","""","""","""","""","""","""","""","""","""","2021-08-13 22:30:50",70.191.38.13,"Mozilla/5.0 (Windows NT 10.0; Win64; x64) AppleWebKit/537.36 (KHTML, like Gecko) Chrome/92.0.4515.107 Safari/537.36",WebKit,Chrome,92.0.4515.107,Windows,10.0,5f461dd6c139dd6b46c7596cbd57cd79
211,1,"""","""","""","""","""",sampler,218,360976,0.0-6.0-212.0,"""","""","""","""","""","""","""","""","""","""","""","""","2021-08-13 22:30:50",70.191.38.13,"Mozilla/5.0 (Windows NT 10.0; Win64; x64) AppleWebKit/537.36 (KHTML, like Gecko) Chrome/92.0.4515.107 Safari/537.36",WebKit,Chrome,92.0.4515.107,Windows,10.0,5f461dd6c139dd6b46c7596cbd57cd79
211,1,"""","""","""","""","""",sampler,219,360976,0.0-6.0-213.0,"""","""","""","""","""","""","""","""","""","""","""","""","2021-08-13 22:30:50",70.191.38.13,"Mozilla/5.0 (Windows NT 10.0; Win64; x64) AppleWebKit/537.36 (KHTML, like Gecko) Chrome/92.0.4515.107 Safari/537.36",WebKit,Chrome,92.0.4515.107,Windows,10.0,5f461dd6c139dd6b46c7596cbd57cd79
211,1,"""","""","""","""","""",sampler,220,360976,0.0-6.0-214.0,"""","""","""","""","""","""","""","""","""","""","""","""","2021-08-13 22:30:50",70.191.38.13,"Mozilla/5.0 (Windows NT 10.0; Win64; x64) AppleWebKit/537.36 (KHTML, like Gecko) Chrome/92.0.4515.107 Safari/537.36",WebKit,Chrome,92.0.4515.107,Windows,10.0,5f461dd6c139dd6b46c7596cbd57cd79
211,1,"""","""","""","""","""",sampler,221,360976,0.0-6.0-215.0,"""","""","""","""","""","""","""","""","""","""","""","""","2021-08-13 22:30:50",70.191.38.13,"Mozilla/5.0 (Windows NT 10.0; Win64; x64) AppleWebKit/537.36 (KHTML, like Gecko) Chrome/92.0.4515.107 Safari/537.36",WebKit,Chrome,92.0.4515.107,Windows,10.0,5f461dd6c139dd6b46c7596cbd57cd79
211,1,"""","""","""","""","""",sampler,222,360976,0.0-6.0-216.0,"""","""","""","""","""","""","""","""","""","""","""","""","2021-08-13 22:30:50",70.191.38.13,"Mozilla/5.0 (Windows NT 10.0; Win64; x64) AppleWebKit/537.36 (KHTML, like Gecko) Chrome/92.0.4515.107 Safari/537.36",WebKit,Chrome,92.0.4515.107,Windows,10.0,5f461dd6c139dd6b46c7596cbd57cd79
211,1,"""","""","""","""","""",sampler,223,360976,0.0-6.0-217.0,"""","""","""","""","""","""","""","""","""","""","""","""","2021-08-13 22:30:50",70.191.38.13,"Mozilla/5.0 (Windows NT 10.0; Win64; x64) AppleWebKit/537.36 (KHTML, like Gecko) Chrome/92.0.4515.107 Safari/537.36",WebKit,Chrome,92.0.4515.107,Windows,10.0,5f461dd6c139dd6b46c7596cbd57cd79
211,1,"""","""","""","""","""",sampler,224,360976,0.0-6.0-218.0,"""","""","""","""","""","""","""","""","""","""","""","""","2021-08-13 22:30:50",70.191.38.13,"Mozilla/5.0 (Windows NT 10.0; Win64; x64) AppleWebKit/537.36 (KHTML, like Gecko) Chrome/92.0.4515.107 Safari/537.36",WebKit,Chrome,92.0.4515.107,Windows,10.0,5f461dd6c139dd6b46c7596cbd57cd79
211,1,"""","""","""","""","""",sampler,225,360976,0.0-6.0-219.0,"""","""","""","""","""","""","""","""","""","""","""","""","2021-08-13 22:30:50",70.191.38.13,"Mozilla/5.0 (Windows NT 10.0; Win64; x64) AppleWebKit/537.36 (KHTML, like Gecko) Chrome/92.0.4515.107 Safari/537.36",WebKit,Chrome,92.0.4515.107,Windows,10.0,5f461dd6c139dd6b46c7596cbd57cd79
211,1,"""","""","""","""","""",sampler,226,360977,0.0-6.0-220.0,"""","""","""","""","""","""","""","""","""","""","""","""","2021-08-13 22:30:50",70.191.38.13,"Mozilla/5.0 (Windows NT 10.0; Win64; x64) AppleWebKit/537.36 (KHTML, like Gecko) Chrome/92.0.4515.107 Safari/537.36",WebKit,Chrome,92.0.4515.107,Windows,10.0,5f461dd6c139dd6b46c7596cbd57cd79
211,1,"""","""","""","""","""",sampler,227,360977,0.0-6.0-221.0,"""","""","""","""","""","""","""","""","""","""","""","""","2021-08-13 22:30:50",70.191.38.13,"Mozilla/5.0 (Windows NT 10.0; Win64; x64) AppleWebKit/537.36 (KHTML, like Gecko) Chrome/92.0.4515.107 Safari/537.36",WebKit,Chrome,92.0.4515.107,Windows,10.0,5f461dd6c139dd6b46c7596cbd57cd79
211,1,"""","""","""","""","""",sampler,228,360977,0.0-6.0-222.0,"""","""","""","""","""","""","""","""","""","""","""","""","2021-08-13 22:30:50",70.191.38.13,"Mozilla/5.0 (Windows NT 10.0; Win64; x64) AppleWebKit/537.36 (KHTML, like Gecko) Chrome/92.0.4515.107 Safari/537.36",WebKit,Chrome,92.0.4515.107,Windows,10.0,5f461dd6c139dd6b46c7596cbd57cd79
211,1,"""","""","""","""","""",sampler,229,360977,0.0-6.0-223.0,"""","""","""","""","""","""","""","""","""","""","""","""","2021-08-13 22:30:50",70.191.38.13,"Mozilla/5.0 (Windows NT 10.0; Win64; x64) AppleWebKit/537.36 (KHTML, like Gecko) Chrome/92.0.4515.107 Safari/537.36",WebKit,Chrome,92.0.4515.107,Windows,10.0,5f461dd6c139dd6b46c7596cbd57cd79
211,1,"""","""","""","""","""",sampler,230,360977,0.0-6.0-224.0,"""","""","""","""","""","""","""","""","""","""","""","""","2021-08-13 22:30:50",70.191.38.13,"Mozilla/5.0 (Windows NT 10.0; Win64; x64) AppleWebKit/537.36 (KHTML, like Gecko) Chrome/92.0.4515.107 Safari/537.36",WebKit,Chrome,92.0.4515.107,Windows,10.0,5f461dd6c139dd6b46c7596cbd57cd79
211,1,"""","""","""","""","""",sampler,231,360977,0.0-6.0-225.0,"""","""","""","""","""","""","""","""","""","""","""","""","2021-08-13 22:30:50",70.191.38.13,"Mozilla/5.0 (Windows NT 10.0; Win64; x64) AppleWebKit/537.36 (KHTML, like Gecko) Chrome/92.0.4515.107 Safari/537.36",WebKit,Chrome,92.0.4515.107,Windows,10.0,5f461dd6c139dd6b46c7596cbd57cd79
211,1,"""","""","""","""","""",sampler,232,360977,0.0-6.0-226.0,"""","""","""","""","""","""","""","""","""","""","""","""","2021-08-13 22:30:50",70.191.38.13,"Mozilla/5.0 (Windows NT 10.0; Win64; x64) AppleWebKit/537.36 (KHTML, like Gecko) Chrome/92.0.4515.107 Safari/537.36",WebKit,Chrome,92.0.4515.107,Windows,10.0,5f461dd6c139dd6b46c7596cbd57cd79
211,1,"""","""","""","""","""",sampler,233,360977,0.0-6.0-227.0,"""","""","""","""","""","""","""","""","""","""","""","""","2021-08-13 22:30:50",70.191.38.13,"Mozilla/5.0 (Windows NT 10.0; Win64; x64) AppleWebKit/537.36 (KHTML, like Gecko) Chrome/92.0.4515.107 Safari/537.36",WebKit,Chrome,92.0.4515.107,Windows,10.0,5f461dd6c139dd6b46c7596cbd57cd79
211,1,"""","""","""","""","""",sampler,234,360977,0.0-6.0-228.0,"""","""","""","""","""","""","""","""","""","""","""","""","2021-08-13 22:30:50",70.191.38.13,"Mozilla/5.0 (Windows NT 10.0; Win64; x64) AppleWebKit/537.36 (KHTML, like Gecko) Chrome/92.0.4515.107 Safari/537.36",WebKit,Chrome,92.0.4515.107,Windows,10.0,5f461dd6c139dd6b46c7596cbd57cd79
211,1,"""","""","""","""","""",sampler,235,360977,0.0-6.0-229.0,"""","""","""","""","""","""","""","""","""","""","""","""","2021-08-13 22:30:50",70.191.38.13,"Mozilla/5.0 (Windows NT 10.0; Win64; x64) AppleWebKit/537.36 (KHTML, like Gecko) Chrome/92.0.4515.107 Safari/537.36",WebKit,Chrome,92.0.4515.107,Windows,10.0,5f461dd6c139dd6b46c7596cbd57cd79
211,1,"""","""","""","""","""",sampler,236,360978,0.0-6.0-230.0,"""","""","""","""","""","""","""","""","""","""","""","""","2021-08-13 22:30:50",70.191.38.13,"Mozilla/5.0 (Windows NT 10.0; Win64; x64) AppleWebKit/537.36 (KHTML, like Gecko) Chrome/92.0.4515.107 Safari/537.36",WebKit,Chrome,92.0.4515.107,Windows,10.0,5f461dd6c139dd6b46c7596cbd57cd79
211,1,"""","""","""","""","""",sampler,237,360978,0.0-6.0-231.0,"""","""","""","""","""","""","""","""","""","""","""","""","2021-08-13 22:30:50",70.191.38.13,"Mozilla/5.0 (Windows NT 10.0; Win64; x64) AppleWebKit/537.36 (KHTML, like Gecko) Chrome/92.0.4515.107 Safari/537.36",WebKit,Chrome,92.0.4515.107,Windows,10.0,5f461dd6c139dd6b46c7596cbd57cd79
211,1,"""","""","""","""","""",sampler,238,360978,0.0-6.0-232.0,"""","""","""","""","""","""","""","""","""","""","""","""","2021-08-13 22:30:50",70.191.38.13,"Mozilla/5.0 (Windows NT 10.0; Win64; x64) AppleWebKit/537.36 (KHTML, like Gecko) Chrome/92.0.4515.107 Safari/537.36",WebKit,Chrome,92.0.4515.107,Windows,10.0,5f461dd6c139dd6b46c7596cbd57cd79
211,1,"""","""","""","""","""",sampler,239,360978,0.0-6.0-233.0,"""","""","""","""","""","""","""","""","""","""","""","""","2021-08-13 22:30:50",70.191.38.13,"Mozilla/5.0 (Windows NT 10.0; Win64; x64) AppleWebKit/537.36 (KHTML, like Gecko) Chrome/92.0.4515.107 Safari/537.36",WebKit,Chrome,92.0.4515.107,Windows,10.0,5f461dd6c139dd6b46c7596cbd57cd79
211,1,"""","""","""","""","""",sampler,240,360978,0.0-6.0-234.0,"""","""","""","""","""","""","""","""","""","""","""","""","2021-08-13 22:30:50",70.191.38.13,"Mozilla/5.0 (Windows NT 10.0; Win64; x64) AppleWebKit/537.36 (KHTML, like Gecko) Chrome/92.0.4515.107 Safari/537.36",WebKit,Chrome,92.0.4515.107,Windows,10.0,5f461dd6c139dd6b46c7596cbd57cd79
211,1,"""","""","""","""","""",sampler,241,360978,0.0-6.0-235.0,"""","""","""","""","""","""","""","""","""","""","""","""","2021-08-13 22:30:50",70.191.38.13,"Mozilla/5.0 (Windows NT 10.0; Win64; x64) AppleWebKit/537.36 (KHTML, like Gecko) Chrome/92.0.4515.107 Safari/537.36",WebKit,Chrome,92.0.4515.107,Windows,10.0,5f461dd6c139dd6b46c7596cbd57cd79
211,1,"""","""","""","""","""",sampler,242,360978,0.0-6.0-236.0,"""","""","""","""","""","""","""","""","""","""","""","""","2021-08-13 22:30:50",70.191.38.13,"Mozilla/5.0 (Windows NT 10.0; Win64; x64) AppleWebKit/537.36 (KHTML, like Gecko) Chrome/92.0.4515.107 Safari/537.36",WebKit,Chrome,92.0.4515.107,Windows,10.0,5f461dd6c139dd6b46c7596cbd57cd79
211,1,"""","""","""","""","""",sampler,243,360978,0.0-6.0-237.0,"""","""","""","""","""","""","""","""","""","""","""","""","2021-08-13 22:30:50",70.191.38.13,"Mozilla/5.0 (Windows NT 10.0; Win64; x64) AppleWebKit/537.36 (KHTML, like Gecko) Chrome/92.0.4515.107 Safari/537.36",WebKit,Chrome,92.0.4515.107,Windows,10.0,5f461dd6c139dd6b46c7596cbd57cd79
211,1,"""","""","""","""","""",sampler,244,360978,0.0-6.0-238.0,"""","""","""","""","""","""","""","""","""","""","""","""","2021-08-13 22:30:50",70.191.38.13,"Mozilla/5.0 (Windows NT 10.0; Win64; x64) AppleWebKit/537.36 (KHTML, like Gecko) Chrome/92.0.4515.107 Safari/537.36",WebKit,Chrome,92.0.4515.107,Windows,10.0,5f461dd6c139dd6b46c7596cbd57cd79
211,1,"""","""","""","""","""",sampler,245,360978,0.0-6.0-239.0,"""","""","""","""","""","""","""","""","""","""","""","""","2021-08-13 22:30:50",70.191.38.13,"Mozilla/5.0 (Windows NT 10.0; Win64; x64) AppleWebKit/537.36 (KHTML, like Gecko) Chrome/92.0.4515.107 Safari/537.36",WebKit,Chrome,92.0.4515.107,Windows,10.0,5f461dd6c139dd6b46c7596cbd57cd79
211,1,"""","""","""","""","""",sampler,246,360978,0.0-6.0-240.0,"""","""","""","""","""","""","""","""","""","""","""","""","2021-08-13 22:30:50",70.191.38.13,"Mozilla/5.0 (Windows NT 10.0; Win64; x64) AppleWebKit/537.36 (KHTML, like Gecko) Chrome/92.0.4515.107 Safari/537.36",WebKit,Chrome,92.0.4515.107,Windows,10.0,5f461dd6c139dd6b46c7596cbd57cd79
211,1,"""","""","""","""","""",sampler,247,360978,0.0-6.0-241.0,"""","""","""","""","""","""","""","""","""","""","""","""","2021-08-13 22:30:50",70.191.38.13,"Mozilla/5.0 (Windows NT 10.0; Win64; x64) AppleWebKit/537.36 (KHTML, like Gecko) Chrome/92.0.4515.107 Safari/537.36",WebKit,Chrome,92.0.4515.107,Windows,10.0,5f461dd6c139dd6b46c7596cbd57cd79
211,1,"""","""","""","""","""",sampler,248,360978,0.0-6.0-242.0,"""","""","""","""","""","""","""","""","""","""","""","""","2021-08-13 22:30:50",70.191.38.13,"Mozilla/5.0 (Windows NT 10.0; Win64; x64) AppleWebKit/537.36 (KHTML, like Gecko) Chrome/92.0.4515.107 Safari/537.36",WebKit,Chrome,92.0.4515.107,Windows,10.0,5f461dd6c139dd6b46c7596cbd57cd79
211,1,"""","""","""","""","""",sampler,249,360978,0.0-6.0-243.0,"""","""","""","""","""","""","""","""","""","""","""","""","2021-08-13 22:30:50",70.191.38.13,"Mozilla/5.0 (Windows NT 10.0; Win64; x64) AppleWebKit/537.36 (KHTML, like Gecko) Chrome/92.0.4515.107 Safari/537.36",WebKit,Chrome,92.0.4515.107,Windows,10.0,5f461dd6c139dd6b46c7596cbd57cd79
211,1,"""","""","""","""","""",sampler,250,360978,0.0-6.0-244.0,"""","""","""","""","""","""","""","""","""","""","""","""","2021-08-13 22:30:50",70.191.38.13,"Mozilla/5.0 (Windows NT 10.0; Win64; x64) AppleWebKit/537.36 (KHTML, like Gecko) Chrome/92.0.4515.107 Safari/537.36",WebKit,Chrome,92.0.4515.107,Windows,10.0,5f461dd6c139dd6b46c7596cbd57cd79
211,1,"""","""","""","""","""",sampler,251,360978,0.0-6.0-245.0,"""","""","""","""","""","""","""","""","""","""","""","""","2021-08-13 22:30:50",70.191.38.13,"Mozilla/5.0 (Windows NT 10.0; Win64; x64) AppleWebKit/537.36 (KHTML, like Gecko) Chrome/92.0.4515.107 Safari/537.36",WebKit,Chrome,92.0.4515.107,Windows,10.0,5f461dd6c139dd6b46c7596cbd57cd79
211,1,"""","""","""","""","""",sampler,252,360978,0.0-6.0-246.0,"""","""","""","""","""","""","""","""","""","""","""","""","2021-08-13 22:30:50",70.191.38.13,"Mozilla/5.0 (Windows NT 10.0; Win64; x64) AppleWebKit/537.36 (KHTML, like Gecko) Chrome/92.0.4515.107 Safari/537.36",WebKit,Chrome,92.0.4515.107,Windows,10.0,5f461dd6c139dd6b46c7596cbd57cd79
211,1,"""","""","""","""","""",sampler,253,360978,0.0-6.0-247.0,"""","""","""","""","""","""","""","""","""","""","""","""","2021-08-13 22:30:50",70.191.38.13,"Mozilla/5.0 (Windows NT 10.0; Win64; x64) AppleWebKit/537.36 (KHTML, like Gecko) Chrome/92.0.4515.107 Safari/537.36",WebKit,Chrome,92.0.4515.107,Windows,10.0,5f461dd6c139dd6b46c7596cbd57cd79
211,1,"""","""","""","""","""",sampler,254,360979,0.0-6.0-248.0,"""","""","""","""","""","""","""","""","""","""","""","""","2021-08-13 22:30:50",70.191.38.13,"Mozilla/5.0 (Windows NT 10.0; Win64; x64) AppleWebKit/537.36 (KHTML, like Gecko) Chrome/92.0.4515.107 Safari/537.36",WebKit,Chrome,92.0.4515.107,Windows,10.0,5f461dd6c139dd6b46c7596cbd57cd79
211,1,"""","""","""","""","""",sampler,255,360979,0.0-6.0-249.0,"""","""","""","""","""","""","""","""","""","""","""","""","2021-08-13 22:30:50",70.191.38.13,"Mozilla/5.0 (Windows NT 10.0; Win64; x64) AppleWebKit/537.36 (KHTML, like Gecko) Chrome/92.0.4515.107 Safari/537.36",WebKit,Chrome,92.0.4515.107,Windows,10.0,5f461dd6c139dd6b46c7596cbd57cd79
211,1,"""","""","""","""","""",sampler,256,360979,0.0-6.0-250.0,"""","""","""","""","""","""","""","""","""","""","""","""","2021-08-13 22:30:50",70.191.38.13,"Mozilla/5.0 (Windows NT 10.0; Win64; x64) AppleWebKit/537.36 (KHTML, like Gecko) Chrome/92.0.4515.107 Safari/537.36",WebKit,Chrome,92.0.4515.107,Windows,10.0,5f461dd6c139dd6b46c7596cbd57cd79
211,1,"""","""","""","""","""",sampler,257,360979,0.0-6.0-251.0,"""","""","""","""","""","""","""","""","""","""","""","""","2021-08-13 22:30:50",70.191.38.13,"Mozilla/5.0 (Windows NT 10.0; Win64; x64) AppleWebKit/537.36 (KHTML, like Gecko) Chrome/92.0.4515.107 Safari/537.36",WebKit,Chrome,92.0.4515.107,Windows,10.0,5f461dd6c139dd6b46c7596cbd57cd79
211,1,"""","""","""","""","""",sampler,258,360979,0.0-6.0-252.0,"""","""","""","""","""","""","""","""","""","""","""","""","2021-08-13 22:30:50",70.191.38.13,"Mozilla/5.0 (Windows NT 10.0; Win64; x64) AppleWebKit/537.36 (KHTML, like Gecko) Chrome/92.0.4515.107 Safari/537.36",WebKit,Chrome,92.0.4515.107,Windows,10.0,5f461dd6c139dd6b46c7596cbd57cd79
211,1,"""","""","""","""","""",sampler,259,360979,0.0-6.0-253.0,"""","""","""","""","""","""","""","""","""","""","""","""","2021-08-13 22:30:50",70.191.38.13,"Mozilla/5.0 (Windows NT 10.0; Win64; x64) AppleWebKit/537.36 (KHTML, like Gecko) Chrome/92.0.4515.107 Safari/537.36",WebKit,Chrome,92.0.4515.107,Windows,10.0,5f461dd6c139dd6b46c7596cbd57cd79
211,1,"""","""","""","""","""",sampler,260,360979,0.0-6.0-254.0,"""","""","""","""","""","""","""","""","""","""","""","""","2021-08-13 22:30:50",70.191.38.13,"Mozilla/5.0 (Windows NT 10.0; Win64; x64) AppleWebKit/537.36 (KHTML, like Gecko) Chrome/92.0.4515.107 Safari/537.36",WebKit,Chrome,92.0.4515.107,Windows,10.0,5f461dd6c139dd6b46c7596cbd57cd79
211,1,"""","""","""","""","""",sampler,261,360979,0.0-6.0-255.0,"""","""","""","""","""","""","""","""","""","""","""","""","2021-08-13 22:30:50",70.191.38.13,"Mozilla/5.0 (Windows NT 10.0; Win64; x64) AppleWebKit/537.36 (KHTML, like Gecko) Chrome/92.0.4515.107 Safari/537.36",WebKit,Chrome,92.0.4515.107,Windows,10.0,5f461dd6c139dd6b46c7596cbd57cd79
211,1,"""","""","""","""","""",sampler,262,360979,0.0-6.0-256.0,"""","""","""","""","""","""","""","""","""","""","""","""","2021-08-13 22:30:50",70.191.38.13,"Mozilla/5.0 (Windows NT 10.0; Win64; x64) AppleWebKit/537.36 (KHTML, like Gecko) Chrome/92.0.4515.107 Safari/537.36",WebKit,Chrome,92.0.4515.107,Windows,10.0,5f461dd6c139dd6b46c7596cbd57cd79
211,1,"""","""","""","""","""",sampler,263,360979,0.0-6.0-257.0,"""","""","""","""","""","""","""","""","""","""","""","""","2021-08-13 22:30:50",70.191.38.13,"Mozilla/5.0 (Windows NT 10.0; Win64; x64) AppleWebKit/537.36 (KHTML, like Gecko) Chrome/92.0.4515.107 Safari/537.36",WebKit,Chrome,92.0.4515.107,Windows,10.0,5f461dd6c139dd6b46c7596cbd57cd79
211,1,"""","""","""","""","""",sampler,264,360979,0.0-6.0-258.0,"""","""","""","""","""","""","""","""","""","""","""","""","2021-08-13 22:30:50",70.191.38.13,"Mozilla/5.0 (Windows NT 10.0; Win64; x64) AppleWebKit/537.36 (KHTML, like Gecko) Chrome/92.0.4515.107 Safari/537.36",WebKit,Chrome,92.0.4515.107,Windows,10.0,5f461dd6c139dd6b46c7596cbd57cd79
211,1,"""","""","""","""","""",sampler,265,360979,0.0-6.0-259.0,"""","""","""","""","""","""","""","""","""","""","""","""","2021-08-13 22:30:50",70.191.38.13,"Mozilla/5.0 (Windows NT 10.0; Win64; x64) AppleWebKit/537.36 (KHTML, like Gecko) Chrome/92.0.4515.107 Safari/537.36",WebKit,Chrome,92.0.4515.107,Windows,10.0,5f461dd6c139dd6b46c7596cbd57cd79
211,1,"""","""","""","""","""",sampler,266,360979,0.0-6.0-260.0,"""","""","""","""","""","""","""","""","""","""","""","""","2021-08-13 22:30:50",70.191.38.13,"Mozilla/5.0 (Windows NT 10.0; Win64; x64) AppleWebKit/537.36 (KHTML, like Gecko) Chrome/92.0.4515.107 Safari/537.36",WebKit,Chrome,92.0.4515.107,Windows,10.0,5f461dd6c139dd6b46c7596cbd57cd79
211,1,"""","""","""","""","""",sampler,267,360979,0.0-6.0-261.0,"""","""","""","""","""","""","""","""","""","""","""","""","2021-08-13 22:30:50",70.191.38.13,"Mozilla/5.0 (Windows NT 10.0; Win64; x64) AppleWebKit/537.36 (KHTML, like Gecko) Chrome/92.0.4515.107 Safari/537.36",WebKit,Chrome,92.0.4515.107,Windows,10.0,5f461dd6c139dd6b46c7596cbd57cd79
211,1,"""","""","""","""","""",sampler,268,360979,0.0-6.0-262.0,"""","""","""","""","""","""","""","""","""","""","""","""","2021-08-13 22:30:50",70.191.38.13,"Mozilla/5.0 (Windows NT 10.0; Win64; x64) AppleWebKit/537.36 (KHTML, like Gecko) Chrome/92.0.4515.107 Safari/537.36",WebKit,Chrome,92.0.4515.107,Windows,10.0,5f461dd6c139dd6b46c7596cbd57cd79
211,1,"""","""","""","""","""",sampler,269,360979,0.0-6.0-263.0,"""","""","""","""","""","""","""","""","""","""","""","""","2021-08-13 22:30:50",70.191.38.13,"Mozilla/5.0 (Windows NT 10.0; Win64; x64) AppleWebKit/537.36 (KHTML, like Gecko) Chrome/92.0.4515.107 Safari/537.36",WebKit,Chrome,92.0.4515.107,Windows,10.0,5f461dd6c139dd6b46c7596cbd57cd79
211,1,"""","""","""","""","""",sampler,270,360979,0.0-6.0-264.0,"""","""","""","""","""","""","""","""","""","""","""","""","2021-08-13 22:30:50",70.191.38.13,"Mozilla/5.0 (Windows NT 10.0; Win64; x64) AppleWebKit/537.36 (KHTML, like Gecko) Chrome/92.0.4515.107 Safari/537.36",WebKit,Chrome,92.0.4515.107,Windows,10.0,5f461dd6c139dd6b46c7596cbd57cd79
211,1,"""","""","""","""","""",sampler,271,360980,0.0-6.0-265.0,"""","""","""","""","""","""","""","""","""","""","""","""","2021-08-13 22:30:50",70.191.38.13,"Mozilla/5.0 (Windows NT 10.0; Win64; x64) AppleWebKit/537.36 (KHTML, like Gecko) Chrome/92.0.4515.107 Safari/537.36",WebKit,Chrome,92.0.4515.107,Windows,10.0,5f461dd6c139dd6b46c7596cbd57cd79
211,1,"""","""","""","""","""",sampler,272,360980,0.0-6.0-266.0,"""","""","""","""","""","""","""","""","""","""","""","""","2021-08-13 22:30:50",70.191.38.13,"Mozilla/5.0 (Windows NT 10.0; Win64; x64) AppleWebKit/537.36 (KHTML, like Gecko) Chrome/92.0.4515.107 Safari/537.36",WebKit,Chrome,92.0.4515.107,Windows,10.0,5f461dd6c139dd6b46c7596cbd57cd79
211,1,"""","""","""","""","""",sampler,273,360980,0.0-6.0-267.0,"""","""","""","""","""","""","""","""","""","""","""","""","2021-08-13 22:30:50",70.191.38.13,"Mozilla/5.0 (Windows NT 10.0; Win64; x64) AppleWebKit/537.36 (KHTML, like Gecko) Chrome/92.0.4515.107 Safari/537.36",WebKit,Chrome,92.0.4515.107,Windows,10.0,5f461dd6c139dd6b46c7596cbd57cd79
211,1,"""","""","""","""","""",sampler,274,360980,0.0-6.0-268.0,"""","""","""","""","""","""","""","""","""","""","""","""","2021-08-13 22:30:50",70.191.38.13,"Mozilla/5.0 (Windows NT 10.0; Win64; x64) AppleWebKit/537.36 (KHTML, like Gecko) Chrome/92.0.4515.107 Safari/537.36",WebKit,Chrome,92.0.4515.107,Windows,10.0,5f461dd6c139dd6b46c7596cbd57cd79
211,1,"""","""","""","""","""",sampler,275,360980,0.0-6.0-269.0,"""","""","""","""","""","""","""","""","""","""","""","""","2021-08-13 22:30:50",70.191.38.13,"Mozilla/5.0 (Windows NT 10.0; Win64; x64) AppleWebKit/537.36 (KHTML, like Gecko) Chrome/92.0.4515.107 Safari/537.36",WebKit,Chrome,92.0.4515.107,Windows,10.0,5f461dd6c139dd6b46c7596cbd57cd79
211,1,"""","""","""","""","""",sampler,276,360980,0.0-6.0-270.0,"""","""","""","""","""","""","""","""","""","""","""","""","2021-08-13 22:30:50",70.191.38.13,"Mozilla/5.0 (Windows NT 10.0; Win64; x64) AppleWebKit/537.36 (KHTML, like Gecko) Chrome/92.0.4515.107 Safari/537.36",WebKit,Chrome,92.0.4515.107,Windows,10.0,5f461dd6c139dd6b46c7596cbd57cd79
211,1,"""","""","""","""","""",sampler,277,360980,0.0-6.0-271.0,"""","""","""","""","""","""","""","""","""","""","""","""","2021-08-13 22:30:50",70.191.38.13,"Mozilla/5.0 (Windows NT 10.0; Win64; x64) AppleWebKit/537.36 (KHTML, like Gecko) Chrome/92.0.4515.107 Safari/537.36",WebKit,Chrome,92.0.4515.107,Windows,10.0,5f461dd6c139dd6b46c7596cbd57cd79
211,1,"""","""","""","""","""",sampler,278,360980,0.0-6.0-272.0,"""","""","""","""","""","""","""","""","""","""","""","""","2021-08-13 22:30:50",70.191.38.13,"Mozilla/5.0 (Windows NT 10.0; Win64; x64) AppleWebKit/537.36 (KHTML, like Gecko) Chrome/92.0.4515.107 Safari/537.36",WebKit,Chrome,92.0.4515.107,Windows,10.0,5f461dd6c139dd6b46c7596cbd57cd79
211,1,"""","""","""","""","""",sampler,279,360980,0.0-6.0-273.0,"""","""","""","""","""","""","""","""","""","""","""","""","2021-08-13 22:30:50",70.191.38.13,"Mozilla/5.0 (Windows NT 10.0; Win64; x64) AppleWebKit/537.36 (KHTML, like Gecko) Chrome/92.0.4515.107 Safari/537.36",WebKit,Chrome,92.0.4515.107,Windows,10.0,5f461dd6c139dd6b46c7596cbd57cd79
