run_id,condition,success,timeout,failed_images,failed_audio,failed_video,trial_type,trial_index,time_elapsed,internal_node_id,rt,stimulus,key_press,responses,view_history,correct,image_click,points,sd,points2,total_earn,button_pressed,recorded_at,ip,user_agent,device,browser,browser_version,platform,platform_version,source_code_version
209,1,true,false,"""","""","""",preload,0,930,0.0-0.0,"""","""","""","""","""","""","""","""","""","""","""","""","2021-08-13 21:47:40",70.93.250.3,"Mozilla/5.0 (Windows NT 10.0; Win64; x64; rv:91.0) Gecko/20100101 Firefox/91.0",,Firefox,91.0,Windows,10.0,5f461dd6c139dd6b46c7596cbd57cd79
209,1,"""","""","""","""","""",html-keyboard-response,1,6240,0.0-1.0,5300,"<font size=15>Welcome to our experiment!</font><br><br><br><i> Press <b>space bar</b> to begin.</i>",32,"""","""","""","""","""","""","""","""","""","2021-08-13 21:47:40",70.93.250.3,"Mozilla/5.0 (Windows NT 10.0; Win64; x64; rv:91.0) Gecko/20100101 Firefox/91.0",,Firefox,91.0,Windows,10.0,5f461dd6c139dd6b46c7596cbd57cd79
209,1,"""","""","""","""","""",survey-multi-choice,2,14414,0.0-2.0,8167,"""","""","{""Q0"":""Yes"",""Q1"":""Yes"",""Q2"":""Yes"",""Q3"":""Yes""}","""","""","""","""","""","""","""","""","2021-08-13 21:47:40",70.93.250.3,"Mozilla/5.0 (Windows NT 10.0; Win64; x64; rv:91.0) Gecko/20100101 Firefox/91.0",,Firefox,91.0,Windows,10.0,5f461dd6c139dd6b46c7596cbd57cd79
209,1,"""","""","""","""","""",survey-html-form,3,26615,0.0-3.0,12195,"""","""","{""gender"":""male"",""age"":""35"",""hand"":""right"",""mail"":""610eb2deab587b7f98373a13""}","""","""","""","""","""","""","""","""","2021-08-13 21:47:40",70.93.250.3,"Mozilla/5.0 (Windows NT 10.0; Win64; x64; rv:91.0) Gecko/20100101 Firefox/91.0",,Firefox,91.0,Windows,10.0,5f461dd6c139dd6b46c7596cbd57cd79
209,1,true,"""","""","""","""",fullscreen,4,28545,0.0-4.0,"""","""","""","""","""","""","""","""","""","""","""","""","2021-08-13 21:47:40",70.93.250.3,"Mozilla/5.0 (Windows NT 10.0; Win64; x64; rv:91.0) Gecko/20100101 Firefox/91.0",,Firefox,91.0,Windows,10.0,5f461dd6c139dd6b46c7596cbd57cd79
209,1,"""","""","""","""","""",multikey-instructions,5,57906,0.0-5.0,29353,"""","""","""","[{""page_index"":0,""viewing_time"":1187},{""page_index"":1,""viewing_time"":753},{""page_index"":2,""viewing_time"":5617},{""page_index"":3,""viewing_time"":4340},{""page_index"":4,""viewing_time"":4371},{""page_index"":5,""viewing_time"":1114},{""page_index"":6,""viewing_time"":1432},{""page_index"":7,""viewing_time"":1599},{""page_index"":8,""viewing_time"":4433},{""page_index"":9,""viewing_time"":1303},{""page_index"":10,""viewing_time"":1710},{""page_index"":11,""viewing_time"":1494}]","""","""","""","""","""","""","""","2021-08-13 21:47:40",70.93.250.3,"Mozilla/5.0 (Windows NT 10.0; Win64; x64; rv:91.0) Gecko/20100101 Firefox/91.0",,Firefox,91.0,Windows,10.0,5f461dd6c139dd6b46c7596cbd57cd79
209,1,"""","""","""","""","""",sampler,6,64500,0.0-6.0-0.0,6174,img/Cobalt.png,"""","""","""",false,-1,13.776107574925895,10,"""","""","""","2021-08-13 21:47:40",70.93.250.3,"Mozilla/5.0 (Windows NT 10.0; Win64; x64; rv:91.0) Gecko/20100101 Firefox/91.0",,Firefox,91.0,Windows,10.0,5f461dd6c139dd6b46c7596cbd57cd79
209,1,"""","""","""","""","""",sampler,7,67356,0.0-6.0-1.0,2439,img/Cobalt.png,"""","""","""",false,-1,18.98455412991433,10,"""","""","""","2021-08-13 21:47:40",70.93.250.3,"Mozilla/5.0 (Windows NT 10.0; Win64; x64; rv:91.0) Gecko/20100101 Firefox/91.0",,Firefox,91.0,Windows,10.0,5f461dd6c139dd6b46c7596cbd57cd79
209,1,"""","""","""","""","""",sampler,8,67359,0.0-6.0-2.0,"""","""","""","""","""","""","""","""","""","""","""","""","2021-08-13 21:47:40",70.93.250.3,"Mozilla/5.0 (Windows NT 10.0; Win64; x64; rv:91.0) Gecko/20100101 Firefox/91.0",,Firefox,91.0,Windows,10.0,5f461dd6c139dd6b46c7596cbd57cd79
209,1,"""","""","""","""","""",sampler,9,67360,0.0-6.0-3.0,"""","""","""","""","""","""","""","""","""","""","""","""","2021-08-13 21:47:40",70.93.250.3,"Mozilla/5.0 (Windows NT 10.0; Win64; x64; rv:91.0) Gecko/20100101 Firefox/91.0",,Firefox,91.0,Windows,10.0,5f461dd6c139dd6b46c7596cbd57cd79
209,1,"""","""","""","""","""",sampler,10,67362,0.0-6.0-4.0,"""","""","""","""","""","""","""","""","""","""","""","""","2021-08-13 21:47:40",70.93.250.3,"Mozilla/5.0 (Windows NT 10.0; Win64; x64; rv:91.0) Gecko/20100101 Firefox/91.0",,Firefox,91.0,Windows,10.0,5f461dd6c139dd6b46c7596cbd57cd79
209,1,"""","""","""","""","""",sampler,11,67363,0.0-6.0-5.0,"""","""","""","""","""","""","""","""","""","""","""","""","2021-08-13 21:47:40",70.93.250.3,"Mozilla/5.0 (Windows NT 10.0; Win64; x64; rv:91.0) Gecko/20100101 Firefox/91.0",,Firefox,91.0,Windows,10.0,5f461dd6c139dd6b46c7596cbd57cd79
209,1,"""","""","""","""","""",sampler,12,67364,0.0-6.0-6.0,"""","""","""","""","""","""","""","""","""","""","""","""","2021-08-13 21:47:40",70.93.250.3,"Mozilla/5.0 (Windows NT 10.0; Win64; x64; rv:91.0) Gecko/20100101 Firefox/91.0",,Firefox,91.0,Windows,10.0,5f461dd6c139dd6b46c7596cbd57cd79
209,1,"""","""","""","""","""",sampler,13,67365,0.0-6.0-7.0,"""","""","""","""","""","""","""","""","""","""","""","""","2021-08-13 21:47:40",70.93.250.3,"Mozilla/5.0 (Windows NT 10.0; Win64; x64; rv:91.0) Gecko/20100101 Firefox/91.0",,Firefox,91.0,Windows,10.0,5f461dd6c139dd6b46c7596cbd57cd79
209,1,"""","""","""","""","""",sampler,14,67365,0.0-6.0-8.0,"""","""","""","""","""","""","""","""","""","""","""","""","2021-08-13 21:47:40",70.93.250.3,"Mozilla/5.0 (Windows NT 10.0; Win64; x64; rv:91.0) Gecko/20100101 Firefox/91.0",,Firefox,91.0,Windows,10.0,5f461dd6c139dd6b46c7596cbd57cd79
209,1,"""","""","""","""","""",sampler,15,67365,0.0-6.0-9.0,"""","""","""","""","""","""","""","""","""","""","""","""","2021-08-13 21:47:40",70.93.250.3,"Mozilla/5.0 (Windows NT 10.0; Win64; x64; rv:91.0) Gecko/20100101 Firefox/91.0",,Firefox,91.0,Windows,10.0,5f461dd6c139dd6b46c7596cbd57cd79
209,1,"""","""","""","""","""",sampler,16,67366,0.0-6.0-10.0,"""","""","""","""","""","""","""","""","""","""","""","""","2021-08-13 21:47:40",70.93.250.3,"Mozilla/5.0 (Windows NT 10.0; Win64; x64; rv:91.0) Gecko/20100101 Firefox/91.0",,Firefox,91.0,Windows,10.0,5f461dd6c139dd6b46c7596cbd57cd79
209,1,"""","""","""","""","""",sampler,17,67367,0.0-6.0-11.0,"""","""","""","""","""","""","""","""","""","""","""","""","2021-08-13 21:47:40",70.93.250.3,"Mozilla/5.0 (Windows NT 10.0; Win64; x64; rv:91.0) Gecko/20100101 Firefox/91.0",,Firefox,91.0,Windows,10.0,5f461dd6c139dd6b46c7596cbd57cd79
209,1,"""","""","""","""","""",sampler,18,67368,0.0-6.0-12.0,"""","""","""","""","""","""","""","""","""","""","""","""","2021-08-13 21:47:40",70.93.250.3,"Mozilla/5.0 (Windows NT 10.0; Win64; x64; rv:91.0) Gecko/20100101 Firefox/91.0",,Firefox,91.0,Windows,10.0,5f461dd6c139dd6b46c7596cbd57cd79
209,1,"""","""","""","""","""",sampler,19,67368,0.0-6.0-13.0,"""","""","""","""","""","""","""","""","""","""","""","""","2021-08-13 21:47:40",70.93.250.3,"Mozilla/5.0 (Windows NT 10.0; Win64; x64; rv:91.0) Gecko/20100101 Firefox/91.0",,Firefox,91.0,Windows,10.0,5f461dd6c139dd6b46c7596cbd57cd79
209,1,"""","""","""","""","""",sampler,20,67369,0.0-6.0-14.0,"""","""","""","""","""","""","""","""","""","""","""","""","2021-08-13 21:47:40",70.93.250.3,"Mozilla/5.0 (Windows NT 10.0; Win64; x64; rv:91.0) Gecko/20100101 Firefox/91.0",,Firefox,91.0,Windows,10.0,5f461dd6c139dd6b46c7596cbd57cd79
209,1,"""","""","""","""","""",sampler,21,67369,0.0-6.0-15.0,"""","""","""","""","""","""","""","""","""","""","""","""","2021-08-13 21:47:40",70.93.250.3,"Mozilla/5.0 (Windows NT 10.0; Win64; x64; rv:91.0) Gecko/20100101 Firefox/91.0",,Firefox,91.0,Windows,10.0,5f461dd6c139dd6b46c7596cbd57cd79
209,1,"""","""","""","""","""",sampler,22,67370,0.0-6.0-16.0,"""","""","""","""","""","""","""","""","""","""","""","""","2021-08-13 21:47:40",70.93.250.3,"Mozilla/5.0 (Windows NT 10.0; Win64; x64; rv:91.0) Gecko/20100101 Firefox/91.0",,Firefox,91.0,Windows,10.0,5f461dd6c139dd6b46c7596cbd57cd79
209,1,"""","""","""","""","""",sampler,23,67370,0.0-6.0-17.0,"""","""","""","""","""","""","""","""","""","""","""","""","2021-08-13 21:47:40",70.93.250.3,"Mozilla/5.0 (Windows NT 10.0; Win64; x64; rv:91.0) Gecko/20100101 Firefox/91.0",,Firefox,91.0,Windows,10.0,5f461dd6c139dd6b46c7596cbd57cd79
209,1,"""","""","""","""","""",sampler,24,67371,0.0-6.0-18.0,"""","""","""","""","""","""","""","""","""","""","""","""","2021-08-13 21:47:40",70.93.250.3,"Mozilla/5.0 (Windows NT 10.0; Win64; x64; rv:91.0) Gecko/20100101 Firefox/91.0",,Firefox,91.0,Windows,10.0,5f461dd6c139dd6b46c7596cbd57cd79
209,1,"""","""","""","""","""",sampler,25,67371,0.0-6.0-19.0,"""","""","""","""","""","""","""","""","""","""","""","""","2021-08-13 21:47:40",70.93.250.3,"Mozilla/5.0 (Windows NT 10.0; Win64; x64; rv:91.0) Gecko/20100101 Firefox/91.0",,Firefox,91.0,Windows,10.0,5f461dd6c139dd6b46c7596cbd57cd79
209,1,"""","""","""","""","""",sampler,26,67372,0.0-6.0-20.0,"""","""","""","""","""","""","""","""","""","""","""","""","2021-08-13 21:47:40",70.93.250.3,"Mozilla/5.0 (Windows NT 10.0; Win64; x64; rv:91.0) Gecko/20100101 Firefox/91.0",,Firefox,91.0,Windows,10.0,5f461dd6c139dd6b46c7596cbd57cd79
209,1,"""","""","""","""","""",sampler,27,67372,0.0-6.0-21.0,"""","""","""","""","""","""","""","""","""","""","""","""","2021-08-13 21:47:40",70.93.250.3,"Mozilla/5.0 (Windows NT 10.0; Win64; x64; rv:91.0) Gecko/20100101 Firefox/91.0",,Firefox,91.0,Windows,10.0,5f461dd6c139dd6b46c7596cbd57cd79
209,1,"""","""","""","""","""",sampler,28,67373,0.0-6.0-22.0,"""","""","""","""","""","""","""","""","""","""","""","""","2021-08-13 21:47:40",70.93.250.3,"Mozilla/5.0 (Windows NT 10.0; Win64; x64; rv:91.0) Gecko/20100101 Firefox/91.0",,Firefox,91.0,Windows,10.0,5f461dd6c139dd6b46c7596cbd57cd79
209,1,"""","""","""","""","""",sampler,29,67373,0.0-6.0-23.0,"""","""","""","""","""","""","""","""","""","""","""","""","2021-08-13 21:47:40",70.93.250.3,"Mozilla/5.0 (Windows NT 10.0; Win64; x64; rv:91.0) Gecko/20100101 Firefox/91.0",,Firefox,91.0,Windows,10.0,5f461dd6c139dd6b46c7596cbd57cd79
209,1,"""","""","""","""","""",sampler,30,67373,0.0-6.0-24.0,"""","""","""","""","""","""","""","""","""","""","""","""","2021-08-13 21:47:40",70.93.250.3,"Mozilla/5.0 (Windows NT 10.0; Win64; x64; rv:91.0) Gecko/20100101 Firefox/91.0",,Firefox,91.0,Windows,10.0,5f461dd6c139dd6b46c7596cbd57cd79
209,1,"""","""","""","""","""",sampler,31,67374,0.0-6.0-25.0,"""","""","""","""","""","""","""","""","""","""","""","""","2021-08-13 21:47:40",70.93.250.3,"Mozilla/5.0 (Windows NT 10.0; Win64; x64; rv:91.0) Gecko/20100101 Firefox/91.0",,Firefox,91.0,Windows,10.0,5f461dd6c139dd6b46c7596cbd57cd79
209,1,"""","""","""","""","""",sampler,32,67375,0.0-6.0-26.0,"""","""","""","""","""","""","""","""","""","""","""","""","2021-08-13 21:47:40",70.93.250.3,"Mozilla/5.0 (Windows NT 10.0; Win64; x64; rv:91.0) Gecko/20100101 Firefox/91.0",,Firefox,91.0,Windows,10.0,5f461dd6c139dd6b46c7596cbd57cd79
209,1,"""","""","""","""","""",sampler,33,67376,0.0-6.0-27.0,"""","""","""","""","""","""","""","""","""","""","""","""","2021-08-13 21:47:40",70.93.250.3,"Mozilla/5.0 (Windows NT 10.0; Win64; x64; rv:91.0) Gecko/20100101 Firefox/91.0",,Firefox,91.0,Windows,10.0,5f461dd6c139dd6b46c7596cbd57cd79
209,1,"""","""","""","""","""",sampler,34,67376,0.0-6.0-28.0,"""","""","""","""","""","""","""","""","""","""","""","""","2021-08-13 21:47:40",70.93.250.3,"Mozilla/5.0 (Windows NT 10.0; Win64; x64; rv:91.0) Gecko/20100101 Firefox/91.0",,Firefox,91.0,Windows,10.0,5f461dd6c139dd6b46c7596cbd57cd79
209,1,"""","""","""","""","""",sampler,35,67377,0.0-6.0-29.0,"""","""","""","""","""","""","""","""","""","""","""","""","2021-08-13 21:47:40",70.93.250.3,"Mozilla/5.0 (Windows NT 10.0; Win64; x64; rv:91.0) Gecko/20100101 Firefox/91.0",,Firefox,91.0,Windows,10.0,5f461dd6c139dd6b46c7596cbd57cd79
209,1,"""","""","""","""","""",sampler,36,67377,0.0-6.0-30.0,"""","""","""","""","""","""","""","""","""","""","""","""","2021-08-13 21:47:40",70.93.250.3,"Mozilla/5.0 (Windows NT 10.0; Win64; x64; rv:91.0) Gecko/20100101 Firefox/91.0",,Firefox,91.0,Windows,10.0,5f461dd6c139dd6b46c7596cbd57cd79
209,1,"""","""","""","""","""",sampler,37,67377,0.0-6.0-31.0,"""","""","""","""","""","""","""","""","""","""","""","""","2021-08-13 21:47:40",70.93.250.3,"Mozilla/5.0 (Windows NT 10.0; Win64; x64; rv:91.0) Gecko/20100101 Firefox/91.0",,Firefox,91.0,Windows,10.0,5f461dd6c139dd6b46c7596cbd57cd79
209,1,"""","""","""","""","""",sampler,38,67378,0.0-6.0-32.0,"""","""","""","""","""","""","""","""","""","""","""","""","2021-08-13 21:47:40",70.93.250.3,"Mozilla/5.0 (Windows NT 10.0; Win64; x64; rv:91.0) Gecko/20100101 Firefox/91.0",,Firefox,91.0,Windows,10.0,5f461dd6c139dd6b46c7596cbd57cd79
209,1,"""","""","""","""","""",sampler,39,67378,0.0-6.0-33.0,"""","""","""","""","""","""","""","""","""","""","""","""","2021-08-13 21:47:40",70.93.250.3,"Mozilla/5.0 (Windows NT 10.0; Win64; x64; rv:91.0) Gecko/20100101 Firefox/91.0",,Firefox,91.0,Windows,10.0,5f461dd6c139dd6b46c7596cbd57cd79
209,1,"""","""","""","""","""",sampler,40,67379,0.0-6.0-34.0,"""","""","""","""","""","""","""","""","""","""","""","""","2021-08-13 21:47:40",70.93.250.3,"Mozilla/5.0 (Windows NT 10.0; Win64; x64; rv:91.0) Gecko/20100101 Firefox/91.0",,Firefox,91.0,Windows,10.0,5f461dd6c139dd6b46c7596cbd57cd79
209,1,"""","""","""","""","""",sampler,41,67379,0.0-6.0-35.0,"""","""","""","""","""","""","""","""","""","""","""","""","2021-08-13 21:47:40",70.93.250.3,"Mozilla/5.0 (Windows NT 10.0; Win64; x64; rv:91.0) Gecko/20100101 Firefox/91.0",,Firefox,91.0,Windows,10.0,5f461dd6c139dd6b46c7596cbd57cd79
209,1,"""","""","""","""","""",sampler,42,67380,0.0-6.0-36.0,"""","""","""","""","""","""","""","""","""","""","""","""","2021-08-13 21:47:40",70.93.250.3,"Mozilla/5.0 (Windows NT 10.0; Win64; x64; rv:91.0) Gecko/20100101 Firefox/91.0",,Firefox,91.0,Windows,10.0,5f461dd6c139dd6b46c7596cbd57cd79
209,1,"""","""","""","""","""",sampler,43,67380,0.0-6.0-37.0,"""","""","""","""","""","""","""","""","""","""","""","""","2021-08-13 21:47:40",70.93.250.3,"Mozilla/5.0 (Windows NT 10.0; Win64; x64; rv:91.0) Gecko/20100101 Firefox/91.0",,Firefox,91.0,Windows,10.0,5f461dd6c139dd6b46c7596cbd57cd79
209,1,"""","""","""","""","""",sampler,44,67381,0.0-6.0-38.0,"""","""","""","""","""","""","""","""","""","""","""","""","2021-08-13 21:47:40",70.93.250.3,"Mozilla/5.0 (Windows NT 10.0; Win64; x64; rv:91.0) Gecko/20100101 Firefox/91.0",,Firefox,91.0,Windows,10.0,5f461dd6c139dd6b46c7596cbd57cd79
209,1,"""","""","""","""","""",sampler,45,67381,0.0-6.0-39.0,"""","""","""","""","""","""","""","""","""","""","""","""","2021-08-13 21:47:40",70.93.250.3,"Mozilla/5.0 (Windows NT 10.0; Win64; x64; rv:91.0) Gecko/20100101 Firefox/91.0",,Firefox,91.0,Windows,10.0,5f461dd6c139dd6b46c7596cbd57cd79
209,1,"""","""","""","""","""",sampler,46,67381,0.0-6.0-40.0,"""","""","""","""","""","""","""","""","""","""","""","""","2021-08-13 21:47:40",70.93.250.3,"Mozilla/5.0 (Windows NT 10.0; Win64; x64; rv:91.0) Gecko/20100101 Firefox/91.0",,Firefox,91.0,Windows,10.0,5f461dd6c139dd6b46c7596cbd57cd79
209,1,"""","""","""","""","""",sampler,47,67382,0.0-6.0-41.0,"""","""","""","""","""","""","""","""","""","""","""","""","2021-08-13 21:47:40",70.93.250.3,"Mozilla/5.0 (Windows NT 10.0; Win64; x64; rv:91.0) Gecko/20100101 Firefox/91.0",,Firefox,91.0,Windows,10.0,5f461dd6c139dd6b46c7596cbd57cd79
209,1,"""","""","""","""","""",sampler,48,67382,0.0-6.0-42.0,"""","""","""","""","""","""","""","""","""","""","""","""","2021-08-13 21:47:40",70.93.250.3,"Mozilla/5.0 (Windows NT 10.0; Win64; x64; rv:91.0) Gecko/20100101 Firefox/91.0",,Firefox,91.0,Windows,10.0,5f461dd6c139dd6b46c7596cbd57cd79
209,1,"""","""","""","""","""",sampler,49,67382,0.0-6.0-43.0,"""","""","""","""","""","""","""","""","""","""","""","""","2021-08-13 21:47:40",70.93.250.3,"Mozilla/5.0 (Windows NT 10.0; Win64; x64; rv:91.0) Gecko/20100101 Firefox/91.0",,Firefox,91.0,Windows,10.0,5f461dd6c139dd6b46c7596cbd57cd79
209,1,"""","""","""","""","""",sampler,50,67383,0.0-6.0-44.0,"""","""","""","""","""","""","""","""","""","""","""","""","2021-08-13 21:47:40",70.93.250.3,"Mozilla/5.0 (Windows NT 10.0; Win64; x64; rv:91.0) Gecko/20100101 Firefox/91.0",,Firefox,91.0,Windows,10.0,5f461dd6c139dd6b46c7596cbd57cd79
209,1,"""","""","""","""","""",sampler,51,67383,0.0-6.0-45.0,"""","""","""","""","""","""","""","""","""","""","""","""","2021-08-13 21:47:40",70.93.250.3,"Mozilla/5.0 (Windows NT 10.0; Win64; x64; rv:91.0) Gecko/20100101 Firefox/91.0",,Firefox,91.0,Windows,10.0,5f461dd6c139dd6b46c7596cbd57cd79
209,1,"""","""","""","""","""",sampler,52,67384,0.0-6.0-46.0,"""","""","""","""","""","""","""","""","""","""","""","""","2021-08-13 21:47:40",70.93.250.3,"Mozilla/5.0 (Windows NT 10.0; Win64; x64; rv:91.0) Gecko/20100101 Firefox/91.0",,Firefox,91.0,Windows,10.0,5f461dd6c139dd6b46c7596cbd57cd79
209,1,"""","""","""","""","""",sampler,53,67384,0.0-6.0-47.0,"""","""","""","""","""","""","""","""","""","""","""","""","2021-08-13 21:47:40",70.93.250.3,"Mozilla/5.0 (Windows NT 10.0; Win64; x64; rv:91.0) Gecko/20100101 Firefox/91.0",,Firefox,91.0,Windows,10.0,5f461dd6c139dd6b46c7596cbd57cd79
209,1,"""","""","""","""","""",sampler,54,67384,0.0-6.0-48.0,"""","""","""","""","""","""","""","""","""","""","""","""","2021-08-13 21:47:40",70.93.250.3,"Mozilla/5.0 (Windows NT 10.0; Win64; x64; rv:91.0) Gecko/20100101 Firefox/91.0",,Firefox,91.0,Windows,10.0,5f461dd6c139dd6b46c7596cbd57cd79
209,1,"""","""","""","""","""",sampler,55,67384,0.0-6.0-49.0,"""","""","""","""","""","""","""","""","""","""","""","""","2021-08-13 21:47:40",70.93.250.3,"Mozilla/5.0 (Windows NT 10.0; Win64; x64; rv:91.0) Gecko/20100101 Firefox/91.0",,Firefox,91.0,Windows,10.0,5f461dd6c139dd6b46c7596cbd57cd79
209,1,"""","""","""","""","""",sampler,56,67384,0.0-6.0-50.0,"""","""","""","""","""","""","""","""","""","""","""","""","2021-08-13 21:47:40",70.93.250.3,"Mozilla/5.0 (Windows NT 10.0; Win64; x64; rv:91.0) Gecko/20100101 Firefox/91.0",,Firefox,91.0,Windows,10.0,5f461dd6c139dd6b46c7596cbd57cd79
209,1,"""","""","""","""","""",sampler,57,67384,0.0-6.0-51.0,"""","""","""","""","""","""","""","""","""","""","""","""","2021-08-13 21:47:40",70.93.250.3,"Mozilla/5.0 (Windows NT 10.0; Win64; x64; rv:91.0) Gecko/20100101 Firefox/91.0",,Firefox,91.0,Windows,10.0,5f461dd6c139dd6b46c7596cbd57cd79
209,1,"""","""","""","""","""",sampler,58,67385,0.0-6.0-52.0,"""","""","""","""","""","""","""","""","""","""","""","""","2021-08-13 21:47:40",70.93.250.3,"Mozilla/5.0 (Windows NT 10.0; Win64; x64; rv:91.0) Gecko/20100101 Firefox/91.0",,Firefox,91.0,Windows,10.0,5f461dd6c139dd6b46c7596cbd57cd79
209,1,"""","""","""","""","""",sampler,59,67385,0.0-6.0-53.0,"""","""","""","""","""","""","""","""","""","""","""","""","2021-08-13 21:47:40",70.93.250.3,"Mozilla/5.0 (Windows NT 10.0; Win64; x64; rv:91.0) Gecko/20100101 Firefox/91.0",,Firefox,91.0,Windows,10.0,5f461dd6c139dd6b46c7596cbd57cd79
209,1,"""","""","""","""","""",sampler,60,67385,0.0-6.0-54.0,"""","""","""","""","""","""","""","""","""","""","""","""","2021-08-13 21:47:40",70.93.250.3,"Mozilla/5.0 (Windows NT 10.0; Win64; x64; rv:91.0) Gecko/20100101 Firefox/91.0",,Firefox,91.0,Windows,10.0,5f461dd6c139dd6b46c7596cbd57cd79
209,1,"""","""","""","""","""",sampler,61,67385,0.0-6.0-55.0,"""","""","""","""","""","""","""","""","""","""","""","""","2021-08-13 21:47:40",70.93.250.3,"Mozilla/5.0 (Windows NT 10.0; Win64; x64; rv:91.0) Gecko/20100101 Firefox/91.0",,Firefox,91.0,Windows,10.0,5f461dd6c139dd6b46c7596cbd57cd79
209,1,"""","""","""","""","""",sampler,62,67386,0.0-6.0-56.0,"""","""","""","""","""","""","""","""","""","""","""","""","2021-08-13 21:47:40",70.93.250.3,"Mozilla/5.0 (Windows NT 10.0; Win64; x64; rv:91.0) Gecko/20100101 Firefox/91.0",,Firefox,91.0,Windows,10.0,5f461dd6c139dd6b46c7596cbd57cd79
209,1,"""","""","""","""","""",sampler,63,67386,0.0-6.0-57.0,"""","""","""","""","""","""","""","""","""","""","""","""","2021-08-13 21:47:40",70.93.250.3,"Mozilla/5.0 (Windows NT 10.0; Win64; x64; rv:91.0) Gecko/20100101 Firefox/91.0",,Firefox,91.0,Windows,10.0,5f461dd6c139dd6b46c7596cbd57cd79
209,1,"""","""","""","""","""",sampler,64,67386,0.0-6.0-58.0,"""","""","""","""","""","""","""","""","""","""","""","""","2021-08-13 21:47:40",70.93.250.3,"Mozilla/5.0 (Windows NT 10.0; Win64; x64; rv:91.0) Gecko/20100101 Firefox/91.0",,Firefox,91.0,Windows,10.0,5f461dd6c139dd6b46c7596cbd57cd79
209,1,"""","""","""","""","""",sampler,65,67386,0.0-6.0-59.0,"""","""","""","""","""","""","""","""","""","""","""","""","2021-08-13 21:47:40",70.93.250.3,"Mozilla/5.0 (Windows NT 10.0; Win64; x64; rv:91.0) Gecko/20100101 Firefox/91.0",,Firefox,91.0,Windows,10.0,5f461dd6c139dd6b46c7596cbd57cd79
209,1,"""","""","""","""","""",sampler,66,67386,0.0-6.0-60.0,"""","""","""","""","""","""","""","""","""","""","""","""","2021-08-13 21:47:40",70.93.250.3,"Mozilla/5.0 (Windows NT 10.0; Win64; x64; rv:91.0) Gecko/20100101 Firefox/91.0",,Firefox,91.0,Windows,10.0,5f461dd6c139dd6b46c7596cbd57cd79
209,1,"""","""","""","""","""",sampler,67,67386,0.0-6.0-61.0,"""","""","""","""","""","""","""","""","""","""","""","""","2021-08-13 21:47:40",70.93.250.3,"Mozilla/5.0 (Windows NT 10.0; Win64; x64; rv:91.0) Gecko/20100101 Firefox/91.0",,Firefox,91.0,Windows,10.0,5f461dd6c139dd6b46c7596cbd57cd79
209,1,"""","""","""","""","""",sampler,68,67386,0.0-6.0-62.0,"""","""","""","""","""","""","""","""","""","""","""","""","2021-08-13 21:47:40",70.93.250.3,"Mozilla/5.0 (Windows NT 10.0; Win64; x64; rv:91.0) Gecko/20100101 Firefox/91.0",,Firefox,91.0,Windows,10.0,5f461dd6c139dd6b46c7596cbd57cd79
209,1,"""","""","""","""","""",sampler,69,67387,0.0-6.0-63.0,"""","""","""","""","""","""","""","""","""","""","""","""","2021-08-13 21:47:40",70.93.250.3,"Mozilla/5.0 (Windows NT 10.0; Win64; x64; rv:91.0) Gecko/20100101 Firefox/91.0",,Firefox,91.0,Windows,10.0,5f461dd6c139dd6b46c7596cbd57cd79
209,1,"""","""","""","""","""",sampler,70,67387,0.0-6.0-64.0,"""","""","""","""","""","""","""","""","""","""","""","""","2021-08-13 21:47:40",70.93.250.3,"Mozilla/5.0 (Windows NT 10.0; Win64; x64; rv:91.0) Gecko/20100101 Firefox/91.0",,Firefox,91.0,Windows,10.0,5f461dd6c139dd6b46c7596cbd57cd79
209,1,"""","""","""","""","""",sampler,71,67387,0.0-6.0-65.0,"""","""","""","""","""","""","""","""","""","""","""","""","2021-08-13 21:47:40",70.93.250.3,"Mozilla/5.0 (Windows NT 10.0; Win64; x64; rv:91.0) Gecko/20100101 Firefox/91.0",,Firefox,91.0,Windows,10.0,5f461dd6c139dd6b46c7596cbd57cd79
209,1,"""","""","""","""","""",sampler,72,67387,0.0-6.0-66.0,"""","""","""","""","""","""","""","""","""","""","""","""","2021-08-13 21:47:40",70.93.250.3,"Mozilla/5.0 (Windows NT 10.0; Win64; x64; rv:91.0) Gecko/20100101 Firefox/91.0",,Firefox,91.0,Windows,10.0,5f461dd6c139dd6b46c7596cbd57cd79
209,1,"""","""","""","""","""",sampler,73,67387,0.0-6.0-67.0,"""","""","""","""","""","""","""","""","""","""","""","""","2021-08-13 21:47:40",70.93.250.3,"Mozilla/5.0 (Windows NT 10.0; Win64; x64; rv:91.0) Gecko/20100101 Firefox/91.0",,Firefox,91.0,Windows,10.0,5f461dd6c139dd6b46c7596cbd57cd79
209,1,"""","""","""","""","""",sampler,74,67387,0.0-6.0-68.0,"""","""","""","""","""","""","""","""","""","""","""","""","2021-08-13 21:47:40",70.93.250.3,"Mozilla/5.0 (Windows NT 10.0; Win64; x64; rv:91.0) Gecko/20100101 Firefox/91.0",,Firefox,91.0,Windows,10.0,5f461dd6c139dd6b46c7596cbd57cd79
209,1,"""","""","""","""","""",sampler,75,67387,0.0-6.0-69.0,"""","""","""","""","""","""","""","""","""","""","""","""","2021-08-13 21:47:40",70.93.250.3,"Mozilla/5.0 (Windows NT 10.0; Win64; x64; rv:91.0) Gecko/20100101 Firefox/91.0",,Firefox,91.0,Windows,10.0,5f461dd6c139dd6b46c7596cbd57cd79
209,1,"""","""","""","""","""",sampler,76,67387,0.0-6.0-70.0,"""","""","""","""","""","""","""","""","""","""","""","""","2021-08-13 21:47:40",70.93.250.3,"Mozilla/5.0 (Windows NT 10.0; Win64; x64; rv:91.0) Gecko/20100101 Firefox/91.0",,Firefox,91.0,Windows,10.0,5f461dd6c139dd6b46c7596cbd57cd79
209,1,"""","""","""","""","""",sampler,77,67388,0.0-6.0-71.0,"""","""","""","""","""","""","""","""","""","""","""","""","2021-08-13 21:47:40",70.93.250.3,"Mozilla/5.0 (Windows NT 10.0; Win64; x64; rv:91.0) Gecko/20100101 Firefox/91.0",,Firefox,91.0,Windows,10.0,5f461dd6c139dd6b46c7596cbd57cd79
209,1,"""","""","""","""","""",sampler,78,67388,0.0-6.0-72.0,"""","""","""","""","""","""","""","""","""","""","""","""","2021-08-13 21:47:40",70.93.250.3,"Mozilla/5.0 (Windows NT 10.0; Win64; x64; rv:91.0) Gecko/20100101 Firefox/91.0",,Firefox,91.0,Windows,10.0,5f461dd6c139dd6b46c7596cbd57cd79
209,1,"""","""","""","""","""",sampler,79,67388,0.0-6.0-73.0,"""","""","""","""","""","""","""","""","""","""","""","""","2021-08-13 21:47:40",70.93.250.3,"Mozilla/5.0 (Windows NT 10.0; Win64; x64; rv:91.0) Gecko/20100101 Firefox/91.0",,Firefox,91.0,Windows,10.0,5f461dd6c139dd6b46c7596cbd57cd79
209,1,"""","""","""","""","""",sampler,80,67388,0.0-6.0-74.0,"""","""","""","""","""","""","""","""","""","""","""","""","2021-08-13 21:47:40",70.93.250.3,"Mozilla/5.0 (Windows NT 10.0; Win64; x64; rv:91.0) Gecko/20100101 Firefox/91.0",,Firefox,91.0,Windows,10.0,5f461dd6c139dd6b46c7596cbd57cd79
209,1,"""","""","""","""","""",sampler,81,67389,0.0-6.0-75.0,"""","""","""","""","""","""","""","""","""","""","""","""","2021-08-13 21:47:40",70.93.250.3,"Mozilla/5.0 (Windows NT 10.0; Win64; x64; rv:91.0) Gecko/20100101 Firefox/91.0",,Firefox,91.0,Windows,10.0,5f461dd6c139dd6b46c7596cbd57cd79
209,1,"""","""","""","""","""",sampler,82,67389,0.0-6.0-76.0,"""","""","""","""","""","""","""","""","""","""","""","""","2021-08-13 21:47:40",70.93.250.3,"Mozilla/5.0 (Windows NT 10.0; Win64; x64; rv:91.0) Gecko/20100101 Firefox/91.0",,Firefox,91.0,Windows,10.0,5f461dd6c139dd6b46c7596cbd57cd79
209,1,"""","""","""","""","""",sampler,83,67389,0.0-6.0-77.0,"""","""","""","""","""","""","""","""","""","""","""","""","2021-08-13 21:47:40",70.93.250.3,"Mozilla/5.0 (Windows NT 10.0; Win64; x64; rv:91.0) Gecko/20100101 Firefox/91.0",,Firefox,91.0,Windows,10.0,5f461dd6c139dd6b46c7596cbd57cd79
209,1,"""","""","""","""","""",sampler,84,67389,0.0-6.0-78.0,"""","""","""","""","""","""","""","""","""","""","""","""","2021-08-13 21:47:40",70.93.250.3,"Mozilla/5.0 (Windows NT 10.0; Win64; x64; rv:91.0) Gecko/20100101 Firefox/91.0",,Firefox,91.0,Windows,10.0,5f461dd6c139dd6b46c7596cbd57cd79
209,1,"""","""","""","""","""",sampler,85,67389,0.0-6.0-79.0,"""","""","""","""","""","""","""","""","""","""","""","""","2021-08-13 21:47:40",70.93.250.3,"Mozilla/5.0 (Windows NT 10.0; Win64; x64; rv:91.0) Gecko/20100101 Firefox/91.0",,Firefox,91.0,Windows,10.0,5f461dd6c139dd6b46c7596cbd57cd79
209,1,"""","""","""","""","""",sampler,86,67390,0.0-6.0-80.0,"""","""","""","""","""","""","""","""","""","""","""","""","2021-08-13 21:47:40",70.93.250.3,"Mozilla/5.0 (Windows NT 10.0; Win64; x64; rv:91.0) Gecko/20100101 Firefox/91.0",,Firefox,91.0,Windows,10.0,5f461dd6c139dd6b46c7596cbd57cd79
209,1,"""","""","""","""","""",sampler,87,67390,0.0-6.0-81.0,"""","""","""","""","""","""","""","""","""","""","""","""","2021-08-13 21:47:40",70.93.250.3,"Mozilla/5.0 (Windows NT 10.0; Win64; x64; rv:91.0) Gecko/20100101 Firefox/91.0",,Firefox,91.0,Windows,10.0,5f461dd6c139dd6b46c7596cbd57cd79
209,1,"""","""","""","""","""",sampler,88,67390,0.0-6.0-82.0,"""","""","""","""","""","""","""","""","""","""","""","""","2021-08-13 21:47:40",70.93.250.3,"Mozilla/5.0 (Windows NT 10.0; Win64; x64; rv:91.0) Gecko/20100101 Firefox/91.0",,Firefox,91.0,Windows,10.0,5f461dd6c139dd6b46c7596cbd57cd79
209,1,"""","""","""","""","""",sampler,89,67390,0.0-6.0-83.0,"""","""","""","""","""","""","""","""","""","""","""","""","2021-08-13 21:47:40",70.93.250.3,"Mozilla/5.0 (Windows NT 10.0; Win64; x64; rv:91.0) Gecko/20100101 Firefox/91.0",,Firefox,91.0,Windows,10.0,5f461dd6c139dd6b46c7596cbd57cd79
209,1,"""","""","""","""","""",sampler,90,67390,0.0-6.0-84.0,"""","""","""","""","""","""","""","""","""","""","""","""","2021-08-13 21:47:40",70.93.250.3,"Mozilla/5.0 (Windows NT 10.0; Win64; x64; rv:91.0) Gecko/20100101 Firefox/91.0",,Firefox,91.0,Windows,10.0,5f461dd6c139dd6b46c7596cbd57cd79
209,1,"""","""","""","""","""",sampler,91,67391,0.0-6.0-85.0,"""","""","""","""","""","""","""","""","""","""","""","""","2021-08-13 21:47:40",70.93.250.3,"Mozilla/5.0 (Windows NT 10.0; Win64; x64; rv:91.0) Gecko/20100101 Firefox/91.0",,Firefox,91.0,Windows,10.0,5f461dd6c139dd6b46c7596cbd57cd79
209,1,"""","""","""","""","""",sampler,92,67391,0.0-6.0-86.0,"""","""","""","""","""","""","""","""","""","""","""","""","2021-08-13 21:47:40",70.93.250.3,"Mozilla/5.0 (Windows NT 10.0; Win64; x64; rv:91.0) Gecko/20100101 Firefox/91.0",,Firefox,91.0,Windows,10.0,5f461dd6c139dd6b46c7596cbd57cd79
209,1,"""","""","""","""","""",sampler,93,67391,0.0-6.0-87.0,"""","""","""","""","""","""","""","""","""","""","""","""","2021-08-13 21:47:40",70.93.250.3,"Mozilla/5.0 (Windows NT 10.0; Win64; x64; rv:91.0) Gecko/20100101 Firefox/91.0",,Firefox,91.0,Windows,10.0,5f461dd6c139dd6b46c7596cbd57cd79
209,1,"""","""","""","""","""",sampler,94,67391,0.0-6.0-88.0,"""","""","""","""","""","""","""","""","""","""","""","""","2021-08-13 21:47:40",70.93.250.3,"Mozilla/5.0 (Windows NT 10.0; Win64; x64; rv:91.0) Gecko/20100101 Firefox/91.0",,Firefox,91.0,Windows,10.0,5f461dd6c139dd6b46c7596cbd57cd79
209,1,"""","""","""","""","""",sampler,95,67391,0.0-6.0-89.0,"""","""","""","""","""","""","""","""","""","""","""","""","2021-08-13 21:47:40",70.93.250.3,"Mozilla/5.0 (Windows NT 10.0; Win64; x64; rv:91.0) Gecko/20100101 Firefox/91.0",,Firefox,91.0,Windows,10.0,5f461dd6c139dd6b46c7596cbd57cd79
209,1,"""","""","""","""","""",sampler,96,67391,0.0-6.0-90.0,"""","""","""","""","""","""","""","""","""","""","""","""","2021-08-13 21:47:40",70.93.250.3,"Mozilla/5.0 (Windows NT 10.0; Win64; x64; rv:91.0) Gecko/20100101 Firefox/91.0",,Firefox,91.0,Windows,10.0,5f461dd6c139dd6b46c7596cbd57cd79
209,1,"""","""","""","""","""",sampler,97,67392,0.0-6.0-91.0,"""","""","""","""","""","""","""","""","""","""","""","""","2021-08-13 21:47:40",70.93.250.3,"Mozilla/5.0 (Windows NT 10.0; Win64; x64; rv:91.0) Gecko/20100101 Firefox/91.0",,Firefox,91.0,Windows,10.0,5f461dd6c139dd6b46c7596cbd57cd79
209,1,"""","""","""","""","""",sampler,98,67392,0.0-6.0-92.0,"""","""","""","""","""","""","""","""","""","""","""","""","2021-08-13 21:47:40",70.93.250.3,"Mozilla/5.0 (Windows NT 10.0; Win64; x64; rv:91.0) Gecko/20100101 Firefox/91.0",,Firefox,91.0,Windows,10.0,5f461dd6c139dd6b46c7596cbd57cd79
209,1,"""","""","""","""","""",sampler,99,67392,0.0-6.0-93.0,"""","""","""","""","""","""","""","""","""","""","""","""","2021-08-13 21:47:40",70.93.250.3,"Mozilla/5.0 (Windows NT 10.0; Win64; x64; rv:91.0) Gecko/20100101 Firefox/91.0",,Firefox,91.0,Windows,10.0,5f461dd6c139dd6b46c7596cbd57cd79
209,1,"""","""","""","""","""",sampler,100,67392,0.0-6.0-94.0,"""","""","""","""","""","""","""","""","""","""","""","""","2021-08-13 21:47:40",70.93.250.3,"Mozilla/5.0 (Windows NT 10.0; Win64; x64; rv:91.0) Gecko/20100101 Firefox/91.0",,Firefox,91.0,Windows,10.0,5f461dd6c139dd6b46c7596cbd57cd79
209,1,"""","""","""","""","""",sampler,101,67393,0.0-6.0-95.0,"""","""","""","""","""","""","""","""","""","""","""","""","2021-08-13 21:47:40",70.93.250.3,"Mozilla/5.0 (Windows NT 10.0; Win64; x64; rv:91.0) Gecko/20100101 Firefox/91.0",,Firefox,91.0,Windows,10.0,5f461dd6c139dd6b46c7596cbd57cd79
209,1,"""","""","""","""","""",sampler,102,67393,0.0-6.0-96.0,"""","""","""","""","""","""","""","""","""","""","""","""","2021-08-13 21:47:40",70.93.250.3,"Mozilla/5.0 (Windows NT 10.0; Win64; x64; rv:91.0) Gecko/20100101 Firefox/91.0",,Firefox,91.0,Windows,10.0,5f461dd6c139dd6b46c7596cbd57cd79
209,1,"""","""","""","""","""",sampler,103,67393,0.0-6.0-97.0,"""","""","""","""","""","""","""","""","""","""","""","""","2021-08-13 21:47:40",70.93.250.3,"Mozilla/5.0 (Windows NT 10.0; Win64; x64; rv:91.0) Gecko/20100101 Firefox/91.0",,Firefox,91.0,Windows,10.0,5f461dd6c139dd6b46c7596cbd57cd79
209,1,"""","""","""","""","""",sampler,104,67393,0.0-6.0-98.0,"""","""","""","""","""","""","""","""","""","""","""","""","2021-08-13 21:47:40",70.93.250.3,"Mozilla/5.0 (Windows NT 10.0; Win64; x64; rv:91.0) Gecko/20100101 Firefox/91.0",,Firefox,91.0,Windows,10.0,5f461dd6c139dd6b46c7596cbd57cd79
209,1,"""","""","""","""","""",sampler,105,67393,0.0-6.0-99.0,"""","""","""","""","""","""","""","""","""","""","""","""","2021-08-13 21:47:40",70.93.250.3,"Mozilla/5.0 (Windows NT 10.0; Win64; x64; rv:91.0) Gecko/20100101 Firefox/91.0",,Firefox,91.0,Windows,10.0,5f461dd6c139dd6b46c7596cbd57cd79
209,1,"""","""","""","""","""",sampler,106,67394,0.0-6.0-100.0,"""","""","""","""","""","""","""","""","""","""","""","""","2021-08-13 21:47:40",70.93.250.3,"Mozilla/5.0 (Windows NT 10.0; Win64; x64; rv:91.0) Gecko/20100101 Firefox/91.0",,Firefox,91.0,Windows,10.0,5f461dd6c139dd6b46c7596cbd57cd79
209,1,"""","""","""","""","""",sampler,107,67394,0.0-6.0-101.0,"""","""","""","""","""","""","""","""","""","""","""","""","2021-08-13 21:47:40",70.93.250.3,"Mozilla/5.0 (Windows NT 10.0; Win64; x64; rv:91.0) Gecko/20100101 Firefox/91.0",,Firefox,91.0,Windows,10.0,5f461dd6c139dd6b46c7596cbd57cd79
209,1,"""","""","""","""","""",sampler,108,67395,0.0-6.0-102.0,"""","""","""","""","""","""","""","""","""","""","""","""","2021-08-13 21:47:40",70.93.250.3,"Mozilla/5.0 (Windows NT 10.0; Win64; x64; rv:91.0) Gecko/20100101 Firefox/91.0",,Firefox,91.0,Windows,10.0,5f461dd6c139dd6b46c7596cbd57cd79
209,1,"""","""","""","""","""",sampler,109,67395,0.0-6.0-103.0,"""","""","""","""","""","""","""","""","""","""","""","""","2021-08-13 21:47:40",70.93.250.3,"Mozilla/5.0 (Windows NT 10.0; Win64; x64; rv:91.0) Gecko/20100101 Firefox/91.0",,Firefox,91.0,Windows,10.0,5f461dd6c139dd6b46c7596cbd57cd79
209,1,"""","""","""","""","""",sampler,110,67395,0.0-6.0-104.0,"""","""","""","""","""","""","""","""","""","""","""","""","2021-08-13 21:47:40",70.93.250.3,"Mozilla/5.0 (Windows NT 10.0; Win64; x64; rv:91.0) Gecko/20100101 Firefox/91.0",,Firefox,91.0,Windows,10.0,5f461dd6c139dd6b46c7596cbd57cd79
209,1,"""","""","""","""","""",sampler,111,67395,0.0-6.0-105.0,"""","""","""","""","""","""","""","""","""","""","""","""","2021-08-13 21:47:40",70.93.250.3,"Mozilla/5.0 (Windows NT 10.0; Win64; x64; rv:91.0) Gecko/20100101 Firefox/91.0",,Firefox,91.0,Windows,10.0,5f461dd6c139dd6b46c7596cbd57cd79
209,1,"""","""","""","""","""",sampler,112,67395,0.0-6.0-106.0,"""","""","""","""","""","""","""","""","""","""","""","""","2021-08-13 21:47:40",70.93.250.3,"Mozilla/5.0 (Windows NT 10.0; Win64; x64; rv:91.0) Gecko/20100101 Firefox/91.0",,Firefox,91.0,Windows,10.0,5f461dd6c139dd6b46c7596cbd57cd79
209,1,"""","""","""","""","""",sampler,113,67395,0.0-6.0-107.0,"""","""","""","""","""","""","""","""","""","""","""","""","2021-08-13 21:47:40",70.93.250.3,"Mozilla/5.0 (Windows NT 10.0; Win64; x64; rv:91.0) Gecko/20100101 Firefox/91.0",,Firefox,91.0,Windows,10.0,5f461dd6c139dd6b46c7596cbd57cd79
209,1,"""","""","""","""","""",sampler,114,67395,0.0-6.0-108.0,"""","""","""","""","""","""","""","""","""","""","""","""","2021-08-13 21:47:40",70.93.250.3,"Mozilla/5.0 (Windows NT 10.0; Win64; x64; rv:91.0) Gecko/20100101 Firefox/91.0",,Firefox,91.0,Windows,10.0,5f461dd6c139dd6b46c7596cbd57cd79
209,1,"""","""","""","""","""",sampler,115,67396,0.0-6.0-109.0,"""","""","""","""","""","""","""","""","""","""","""","""","2021-08-13 21:47:40",70.93.250.3,"Mozilla/5.0 (Windows NT 10.0; Win64; x64; rv:91.0) Gecko/20100101 Firefox/91.0",,Firefox,91.0,Windows,10.0,5f461dd6c139dd6b46c7596cbd57cd79
209,1,"""","""","""","""","""",sampler,116,67396,0.0-6.0-110.0,"""","""","""","""","""","""","""","""","""","""","""","""","2021-08-13 21:47:40",70.93.250.3,"Mozilla/5.0 (Windows NT 10.0; Win64; x64; rv:91.0) Gecko/20100101 Firefox/91.0",,Firefox,91.0,Windows,10.0,5f461dd6c139dd6b46c7596cbd57cd79
209,1,"""","""","""","""","""",sampler,117,67396,0.0-6.0-111.0,"""","""","""","""","""","""","""","""","""","""","""","""","2021-08-13 21:47:40",70.93.250.3,"Mozilla/5.0 (Windows NT 10.0; Win64; x64; rv:91.0) Gecko/20100101 Firefox/91.0",,Firefox,91.0,Windows,10.0,5f461dd6c139dd6b46c7596cbd57cd79
209,1,"""","""","""","""","""",sampler,118,67396,0.0-6.0-112.0,"""","""","""","""","""","""","""","""","""","""","""","""","2021-08-13 21:47:40",70.93.250.3,"Mozilla/5.0 (Windows NT 10.0; Win64; x64; rv:91.0) Gecko/20100101 Firefox/91.0",,Firefox,91.0,Windows,10.0,5f461dd6c139dd6b46c7596cbd57cd79
209,1,"""","""","""","""","""",sampler,119,67396,0.0-6.0-113.0,"""","""","""","""","""","""","""","""","""","""","""","""","2021-08-13 21:47:40",70.93.250.3,"Mozilla/5.0 (Windows NT 10.0; Win64; x64; rv:91.0) Gecko/20100101 Firefox/91.0",,Firefox,91.0,Windows,10.0,5f461dd6c139dd6b46c7596cbd57cd79
209,1,"""","""","""","""","""",sampler,120,67396,0.0-6.0-114.0,"""","""","""","""","""","""","""","""","""","""","""","""","2021-08-13 21:47:40",70.93.250.3,"Mozilla/5.0 (Windows NT 10.0; Win64; x64; rv:91.0) Gecko/20100101 Firefox/91.0",,Firefox,91.0,Windows,10.0,5f461dd6c139dd6b46c7596cbd57cd79
209,1,"""","""","""","""","""",sampler,121,67397,0.0-6.0-115.0,"""","""","""","""","""","""","""","""","""","""","""","""","2021-08-13 21:47:40",70.93.250.3,"Mozilla/5.0 (Windows NT 10.0; Win64; x64; rv:91.0) Gecko/20100101 Firefox/91.0",,Firefox,91.0,Windows,10.0,5f461dd6c139dd6b46c7596cbd57cd79
209,1,"""","""","""","""","""",sampler,122,67397,0.0-6.0-116.0,"""","""","""","""","""","""","""","""","""","""","""","""","2021-08-13 21:47:40",70.93.250.3,"Mozilla/5.0 (Windows NT 10.0; Win64; x64; rv:91.0) Gecko/20100101 Firefox/91.0",,Firefox,91.0,Windows,10.0,5f461dd6c139dd6b46c7596cbd57cd79
209,1,"""","""","""","""","""",sampler,123,67397,0.0-6.0-117.0,"""","""","""","""","""","""","""","""","""","""","""","""","2021-08-13 21:47:40",70.93.250.3,"Mozilla/5.0 (Windows NT 10.0; Win64; x64; rv:91.0) Gecko/20100101 Firefox/91.0",,Firefox,91.0,Windows,10.0,5f461dd6c139dd6b46c7596cbd57cd79
209,1,"""","""","""","""","""",sampler,124,67397,0.0-6.0-118.0,"""","""","""","""","""","""","""","""","""","""","""","""","2021-08-13 21:47:40",70.93.250.3,"Mozilla/5.0 (Windows NT 10.0; Win64; x64; rv:91.0) Gecko/20100101 Firefox/91.0",,Firefox,91.0,Windows,10.0,5f461dd6c139dd6b46c7596cbd57cd79
209,1,"""","""","""","""","""",sampler,125,67397,0.0-6.0-119.0,"""","""","""","""","""","""","""","""","""","""","""","""","2021-08-13 21:47:40",70.93.250.3,"Mozilla/5.0 (Windows NT 10.0; Win64; x64; rv:91.0) Gecko/20100101 Firefox/91.0",,Firefox,91.0,Windows,10.0,5f461dd6c139dd6b46c7596cbd57cd79
209,1,"""","""","""","""","""",sampler,126,67397,0.0-6.0-120.0,"""","""","""","""","""","""","""","""","""","""","""","""","2021-08-13 21:47:40",70.93.250.3,"Mozilla/5.0 (Windows NT 10.0; Win64; x64; rv:91.0) Gecko/20100101 Firefox/91.0",,Firefox,91.0,Windows,10.0,5f461dd6c139dd6b46c7596cbd57cd79
209,1,"""","""","""","""","""",sampler,127,67398,0.0-6.0-121.0,"""","""","""","""","""","""","""","""","""","""","""","""","2021-08-13 21:47:40",70.93.250.3,"Mozilla/5.0 (Windows NT 10.0; Win64; x64; rv:91.0) Gecko/20100101 Firefox/91.0",,Firefox,91.0,Windows,10.0,5f461dd6c139dd6b46c7596cbd57cd79
209,1,"""","""","""","""","""",sampler,128,67398,0.0-6.0-122.0,"""","""","""","""","""","""","""","""","""","""","""","""","2021-08-13 21:47:40",70.93.250.3,"Mozilla/5.0 (Windows NT 10.0; Win64; x64; rv:91.0) Gecko/20100101 Firefox/91.0",,Firefox,91.0,Windows,10.0,5f461dd6c139dd6b46c7596cbd57cd79
209,1,"""","""","""","""","""",sampler,129,67398,0.0-6.0-123.0,"""","""","""","""","""","""","""","""","""","""","""","""","2021-08-13 21:47:40",70.93.250.3,"Mozilla/5.0 (Windows NT 10.0; Win64; x64; rv:91.0) Gecko/20100101 Firefox/91.0",,Firefox,91.0,Windows,10.0,5f461dd6c139dd6b46c7596cbd57cd79
209,1,"""","""","""","""","""",sampler,130,67398,0.0-6.0-124.0,"""","""","""","""","""","""","""","""","""","""","""","""","2021-08-13 21:47:40",70.93.250.3,"Mozilla/5.0 (Windows NT 10.0; Win64; x64; rv:91.0) Gecko/20100101 Firefox/91.0",,Firefox,91.0,Windows,10.0,5f461dd6c139dd6b46c7596cbd57cd79
209,1,"""","""","""","""","""",sampler,131,67398,0.0-6.0-125.0,"""","""","""","""","""","""","""","""","""","""","""","""","2021-08-13 21:47:40",70.93.250.3,"Mozilla/5.0 (Windows NT 10.0; Win64; x64; rv:91.0) Gecko/20100101 Firefox/91.0",,Firefox,91.0,Windows,10.0,5f461dd6c139dd6b46c7596cbd57cd79
209,1,"""","""","""","""","""",sampler,132,67398,0.0-6.0-126.0,"""","""","""","""","""","""","""","""","""","""","""","""","2021-08-13 21:47:40",70.93.250.3,"Mozilla/5.0 (Windows NT 10.0; Win64; x64; rv:91.0) Gecko/20100101 Firefox/91.0",,Firefox,91.0,Windows,10.0,5f461dd6c139dd6b46c7596cbd57cd79
209,1,"""","""","""","""","""",sampler,133,67398,0.0-6.0-127.0,"""","""","""","""","""","""","""","""","""","""","""","""","2021-08-13 21:47:40",70.93.250.3,"Mozilla/5.0 (Windows NT 10.0; Win64; x64; rv:91.0) Gecko/20100101 Firefox/91.0",,Firefox,91.0,Windows,10.0,5f461dd6c139dd6b46c7596cbd57cd79
209,1,"""","""","""","""","""",sampler,134,67399,0.0-6.0-128.0,"""","""","""","""","""","""","""","""","""","""","""","""","2021-08-13 21:47:40",70.93.250.3,"Mozilla/5.0 (Windows NT 10.0; Win64; x64; rv:91.0) Gecko/20100101 Firefox/91.0",,Firefox,91.0,Windows,10.0,5f461dd6c139dd6b46c7596cbd57cd79
209,1,"""","""","""","""","""",sampler,135,67399,0.0-6.0-129.0,"""","""","""","""","""","""","""","""","""","""","""","""","2021-08-13 21:47:40",70.93.250.3,"Mozilla/5.0 (Windows NT 10.0; Win64; x64; rv:91.0) Gecko/20100101 Firefox/91.0",,Firefox,91.0,Windows,10.0,5f461dd6c139dd6b46c7596cbd57cd79
209,1,"""","""","""","""","""",sampler,136,67399,0.0-6.0-130.0,"""","""","""","""","""","""","""","""","""","""","""","""","2021-08-13 21:47:40",70.93.250.3,"Mozilla/5.0 (Windows NT 10.0; Win64; x64; rv:91.0) Gecko/20100101 Firefox/91.0",,Firefox,91.0,Windows,10.0,5f461dd6c139dd6b46c7596cbd57cd79
209,1,"""","""","""","""","""",sampler,137,67399,0.0-6.0-131.0,"""","""","""","""","""","""","""","""","""","""","""","""","2021-08-13 21:47:40",70.93.250.3,"Mozilla/5.0 (Windows NT 10.0; Win64; x64; rv:91.0) Gecko/20100101 Firefox/91.0",,Firefox,91.0,Windows,10.0,5f461dd6c139dd6b46c7596cbd57cd79
209,1,"""","""","""","""","""",sampler,138,67399,0.0-6.0-132.0,"""","""","""","""","""","""","""","""","""","""","""","""","2021-08-13 21:47:40",70.93.250.3,"Mozilla/5.0 (Windows NT 10.0; Win64; x64; rv:91.0) Gecko/20100101 Firefox/91.0",,Firefox,91.0,Windows,10.0,5f461dd6c139dd6b46c7596cbd57cd79
209,1,"""","""","""","""","""",sampler,139,67399,0.0-6.0-133.0,"""","""","""","""","""","""","""","""","""","""","""","""","2021-08-13 21:47:40",70.93.250.3,"Mozilla/5.0 (Windows NT 10.0; Win64; x64; rv:91.0) Gecko/20100101 Firefox/91.0",,Firefox,91.0,Windows,10.0,5f461dd6c139dd6b46c7596cbd57cd79
209,1,"""","""","""","""","""",sampler,140,67399,0.0-6.0-134.0,"""","""","""","""","""","""","""","""","""","""","""","""","2021-08-13 21:47:40",70.93.250.3,"Mozilla/5.0 (Windows NT 10.0; Win64; x64; rv:91.0) Gecko/20100101 Firefox/91.0",,Firefox,91.0,Windows,10.0,5f461dd6c139dd6b46c7596cbd57cd79
209,1,"""","""","""","""","""",sampler,141,67399,0.0-6.0-135.0,"""","""","""","""","""","""","""","""","""","""","""","""","2021-08-13 21:47:40",70.93.250.3,"Mozilla/5.0 (Windows NT 10.0; Win64; x64; rv:91.0) Gecko/20100101 Firefox/91.0",,Firefox,91.0,Windows,10.0,5f461dd6c139dd6b46c7596cbd57cd79
209,1,"""","""","""","""","""",sampler,142,67399,0.0-6.0-136.0,"""","""","""","""","""","""","""","""","""","""","""","""","2021-08-13 21:47:40",70.93.250.3,"Mozilla/5.0 (Windows NT 10.0; Win64; x64; rv:91.0) Gecko/20100101 Firefox/91.0",,Firefox,91.0,Windows,10.0,5f461dd6c139dd6b46c7596cbd57cd79
209,1,"""","""","""","""","""",sampler,143,67400,0.0-6.0-137.0,"""","""","""","""","""","""","""","""","""","""","""","""","2021-08-13 21:47:40",70.93.250.3,"Mozilla/5.0 (Windows NT 10.0; Win64; x64; rv:91.0) Gecko/20100101 Firefox/91.0",,Firefox,91.0,Windows,10.0,5f461dd6c139dd6b46c7596cbd57cd79
209,1,"""","""","""","""","""",sampler,144,67400,0.0-6.0-138.0,"""","""","""","""","""","""","""","""","""","""","""","""","2021-08-13 21:47:40",70.93.250.3,"Mozilla/5.0 (Windows NT 10.0; Win64; x64; rv:91.0) Gecko/20100101 Firefox/91.0",,Firefox,91.0,Windows,10.0,5f461dd6c139dd6b46c7596cbd57cd79
209,1,"""","""","""","""","""",sampler,145,67400,0.0-6.0-139.0,"""","""","""","""","""","""","""","""","""","""","""","""","2021-08-13 21:47:40",70.93.250.3,"Mozilla/5.0 (Windows NT 10.0; Win64; x64; rv:91.0) Gecko/20100101 Firefox/91.0",,Firefox,91.0,Windows,10.0,5f461dd6c139dd6b46c7596cbd57cd79
209,1,"""","""","""","""","""",sampler,146,67400,0.0-6.0-140.0,"""","""","""","""","""","""","""","""","""","""","""","""","2021-08-13 21:47:40",70.93.250.3,"Mozilla/5.0 (Windows NT 10.0; Win64; x64; rv:91.0) Gecko/20100101 Firefox/91.0",,Firefox,91.0,Windows,10.0,5f461dd6c139dd6b46c7596cbd57cd79
209,1,"""","""","""","""","""",sampler,147,67400,0.0-6.0-141.0,"""","""","""","""","""","""","""","""","""","""","""","""","2021-08-13 21:47:40",70.93.250.3,"Mozilla/5.0 (Windows NT 10.0; Win64; x64; rv:91.0) Gecko/20100101 Firefox/91.0",,Firefox,91.0,Windows,10.0,5f461dd6c139dd6b46c7596cbd57cd79
209,1,"""","""","""","""","""",sampler,148,67400,0.0-6.0-142.0,"""","""","""","""","""","""","""","""","""","""","""","""","2021-08-13 21:47:40",70.93.250.3,"Mozilla/5.0 (Windows NT 10.0; Win64; x64; rv:91.0) Gecko/20100101 Firefox/91.0",,Firefox,91.0,Windows,10.0,5f461dd6c139dd6b46c7596cbd57cd79
209,1,"""","""","""","""","""",sampler,149,67401,0.0-6.0-143.0,"""","""","""","""","""","""","""","""","""","""","""","""","2021-08-13 21:47:40",70.93.250.3,"Mozilla/5.0 (Windows NT 10.0; Win64; x64; rv:91.0) Gecko/20100101 Firefox/91.0",,Firefox,91.0,Windows,10.0,5f461dd6c139dd6b46c7596cbd57cd79
209,1,"""","""","""","""","""",sampler,150,67401,0.0-6.0-144.0,"""","""","""","""","""","""","""","""","""","""","""","""","2021-08-13 21:47:40",70.93.250.3,"Mozilla/5.0 (Windows NT 10.0; Win64; x64; rv:91.0) Gecko/20100101 Firefox/91.0",,Firefox,91.0,Windows,10.0,5f461dd6c139dd6b46c7596cbd57cd79
209,1,"""","""","""","""","""",sampler,151,67401,0.0-6.0-145.0,"""","""","""","""","""","""","""","""","""","""","""","""","2021-08-13 21:47:40",70.93.250.3,"Mozilla/5.0 (Windows NT 10.0; Win64; x64; rv:91.0) Gecko/20100101 Firefox/91.0",,Firefox,91.0,Windows,10.0,5f461dd6c139dd6b46c7596cbd57cd79
209,1,"""","""","""","""","""",sampler,152,67401,0.0-6.0-146.0,"""","""","""","""","""","""","""","""","""","""","""","""","2021-08-13 21:47:40",70.93.250.3,"Mozilla/5.0 (Windows NT 10.0; Win64; x64; rv:91.0) Gecko/20100101 Firefox/91.0",,Firefox,91.0,Windows,10.0,5f461dd6c139dd6b46c7596cbd57cd79
209,1,"""","""","""","""","""",sampler,153,67401,0.0-6.0-147.0,"""","""","""","""","""","""","""","""","""","""","""","""","2021-08-13 21:47:40",70.93.250.3,"Mozilla/5.0 (Windows NT 10.0; Win64; x64; rv:91.0) Gecko/20100101 Firefox/91.0",,Firefox,91.0,Windows,10.0,5f461dd6c139dd6b46c7596cbd57cd79
209,1,"""","""","""","""","""",sampler,154,67401,0.0-6.0-148.0,"""","""","""","""","""","""","""","""","""","""","""","""","2021-08-13 21:47:40",70.93.250.3,"Mozilla/5.0 (Windows NT 10.0; Win64; x64; rv:91.0) Gecko/20100101 Firefox/91.0",,Firefox,91.0,Windows,10.0,5f461dd6c139dd6b46c7596cbd57cd79
209,1,"""","""","""","""","""",sampler,155,67401,0.0-6.0-149.0,"""","""","""","""","""","""","""","""","""","""","""","""","2021-08-13 21:47:40",70.93.250.3,"Mozilla/5.0 (Windows NT 10.0; Win64; x64; rv:91.0) Gecko/20100101 Firefox/91.0",,Firefox,91.0,Windows,10.0,5f461dd6c139dd6b46c7596cbd57cd79
209,1,"""","""","""","""","""",sampler,156,67402,0.0-6.0-150.0,"""","""","""","""","""","""","""","""","""","""","""","""","2021-08-13 21:47:40",70.93.250.3,"Mozilla/5.0 (Windows NT 10.0; Win64; x64; rv:91.0) Gecko/20100101 Firefox/91.0",,Firefox,91.0,Windows,10.0,5f461dd6c139dd6b46c7596cbd57cd79
209,1,"""","""","""","""","""",sampler,157,67402,0.0-6.0-151.0,"""","""","""","""","""","""","""","""","""","""","""","""","2021-08-13 21:47:40",70.93.250.3,"Mozilla/5.0 (Windows NT 10.0; Win64; x64; rv:91.0) Gecko/20100101 Firefox/91.0",,Firefox,91.0,Windows,10.0,5f461dd6c139dd6b46c7596cbd57cd79
209,1,"""","""","""","""","""",sampler,158,67402,0.0-6.0-152.0,"""","""","""","""","""","""","""","""","""","""","""","""","2021-08-13 21:47:40",70.93.250.3,"Mozilla/5.0 (Windows NT 10.0; Win64; x64; rv:91.0) Gecko/20100101 Firefox/91.0",,Firefox,91.0,Windows,10.0,5f461dd6c139dd6b46c7596cbd57cd79
209,1,"""","""","""","""","""",sampler,159,67402,0.0-6.0-153.0,"""","""","""","""","""","""","""","""","""","""","""","""","2021-08-13 21:47:40",70.93.250.3,"Mozilla/5.0 (Windows NT 10.0; Win64; x64; rv:91.0) Gecko/20100101 Firefox/91.0",,Firefox,91.0,Windows,10.0,5f461dd6c139dd6b46c7596cbd57cd79
209,1,"""","""","""","""","""",sampler,160,67402,0.0-6.0-154.0,"""","""","""","""","""","""","""","""","""","""","""","""","2021-08-13 21:47:40",70.93.250.3,"Mozilla/5.0 (Windows NT 10.0; Win64; x64; rv:91.0) Gecko/20100101 Firefox/91.0",,Firefox,91.0,Windows,10.0,5f461dd6c139dd6b46c7596cbd57cd79
209,1,"""","""","""","""","""",sampler,161,67402,0.0-6.0-155.0,"""","""","""","""","""","""","""","""","""","""","""","""","2021-08-13 21:47:40",70.93.250.3,"Mozilla/5.0 (Windows NT 10.0; Win64; x64; rv:91.0) Gecko/20100101 Firefox/91.0",,Firefox,91.0,Windows,10.0,5f461dd6c139dd6b46c7596cbd57cd79
209,1,"""","""","""","""","""",sampler,162,67402,0.0-6.0-156.0,"""","""","""","""","""","""","""","""","""","""","""","""","2021-08-13 21:47:40",70.93.250.3,"Mozilla/5.0 (Windows NT 10.0; Win64; x64; rv:91.0) Gecko/20100101 Firefox/91.0",,Firefox,91.0,Windows,10.0,5f461dd6c139dd6b46c7596cbd57cd79
209,1,"""","""","""","""","""",sampler,163,67404,0.0-6.0-157.0,"""","""","""","""","""","""","""","""","""","""","""","""","2021-08-13 21:47:40",70.93.250.3,"Mozilla/5.0 (Windows NT 10.0; Win64; x64; rv:91.0) Gecko/20100101 Firefox/91.0",,Firefox,91.0,Windows,10.0,5f461dd6c139dd6b46c7596cbd57cd79
209,1,"""","""","""","""","""",sampler,164,67404,0.0-6.0-158.0,"""","""","""","""","""","""","""","""","""","""","""","""","2021-08-13 21:47:40",70.93.250.3,"Mozilla/5.0 (Windows NT 10.0; Win64; x64; rv:91.0) Gecko/20100101 Firefox/91.0",,Firefox,91.0,Windows,10.0,5f461dd6c139dd6b46c7596cbd57cd79
209,1,"""","""","""","""","""",sampler,165,67404,0.0-6.0-159.0,"""","""","""","""","""","""","""","""","""","""","""","""","2021-08-13 21:47:40",70.93.250.3,"Mozilla/5.0 (Windows NT 10.0; Win64; x64; rv:91.0) Gecko/20100101 Firefox/91.0",,Firefox,91.0,Windows,10.0,5f461dd6c139dd6b46c7596cbd57cd79
209,1,"""","""","""","""","""",sampler,166,67404,0.0-6.0-160.0,"""","""","""","""","""","""","""","""","""","""","""","""","2021-08-13 21:47:40",70.93.250.3,"Mozilla/5.0 (Windows NT 10.0; Win64; x64; rv:91.0) Gecko/20100101 Firefox/91.0",,Firefox,91.0,Windows,10.0,5f461dd6c139dd6b46c7596cbd57cd79
209,1,"""","""","""","""","""",sampler,167,67405,0.0-6.0-161.0,"""","""","""","""","""","""","""","""","""","""","""","""","2021-08-13 21:47:40",70.93.250.3,"Mozilla/5.0 (Windows NT 10.0; Win64; x64; rv:91.0) Gecko/20100101 Firefox/91.0",,Firefox,91.0,Windows,10.0,5f461dd6c139dd6b46c7596cbd57cd79
209,1,"""","""","""","""","""",sampler,168,67405,0.0-6.0-162.0,"""","""","""","""","""","""","""","""","""","""","""","""","2021-08-13 21:47:40",70.93.250.3,"Mozilla/5.0 (Windows NT 10.0; Win64; x64; rv:91.0) Gecko/20100101 Firefox/91.0",,Firefox,91.0,Windows,10.0,5f461dd6c139dd6b46c7596cbd57cd79
209,1,"""","""","""","""","""",sampler,169,67405,0.0-6.0-163.0,"""","""","""","""","""","""","""","""","""","""","""","""","2021-08-13 21:47:40",70.93.250.3,"Mozilla/5.0 (Windows NT 10.0; Win64; x64; rv:91.0) Gecko/20100101 Firefox/91.0",,Firefox,91.0,Windows,10.0,5f461dd6c139dd6b46c7596cbd57cd79
209,1,"""","""","""","""","""",sampler,170,67405,0.0-6.0-164.0,"""","""","""","""","""","""","""","""","""","""","""","""","2021-08-13 21:47:40",70.93.250.3,"Mozilla/5.0 (Windows NT 10.0; Win64; x64; rv:91.0) Gecko/20100101 Firefox/91.0",,Firefox,91.0,Windows,10.0,5f461dd6c139dd6b46c7596cbd57cd79
209,1,"""","""","""","""","""",sampler,171,67405,0.0-6.0-165.0,"""","""","""","""","""","""","""","""","""","""","""","""","2021-08-13 21:47:40",70.93.250.3,"Mozilla/5.0 (Windows NT 10.0; Win64; x64; rv:91.0) Gecko/20100101 Firefox/91.0",,Firefox,91.0,Windows,10.0,5f461dd6c139dd6b46c7596cbd57cd79
209,1,"""","""","""","""","""",sampler,172,67405,0.0-6.0-166.0,"""","""","""","""","""","""","""","""","""","""","""","""","2021-08-13 21:47:40",70.93.250.3,"Mozilla/5.0 (Windows NT 10.0; Win64; x64; rv:91.0) Gecko/20100101 Firefox/91.0",,Firefox,91.0,Windows,10.0,5f461dd6c139dd6b46c7596cbd57cd79
209,1,"""","""","""","""","""",sampler,173,67405,0.0-6.0-167.0,"""","""","""","""","""","""","""","""","""","""","""","""","2021-08-13 21:47:40",70.93.250.3,"Mozilla/5.0 (Windows NT 10.0; Win64; x64; rv:91.0) Gecko/20100101 Firefox/91.0",,Firefox,91.0,Windows,10.0,5f461dd6c139dd6b46c7596cbd57cd79
209,1,"""","""","""","""","""",sampler,174,67405,0.0-6.0-168.0,"""","""","""","""","""","""","""","""","""","""","""","""","2021-08-13 21:47:40",70.93.250.3,"Mozilla/5.0 (Windows NT 10.0; Win64; x64; rv:91.0) Gecko/20100101 Firefox/91.0",,Firefox,91.0,Windows,10.0,5f461dd6c139dd6b46c7596cbd57cd79
209,1,"""","""","""","""","""",sampler,175,67405,0.0-6.0-169.0,"""","""","""","""","""","""","""","""","""","""","""","""","2021-08-13 21:47:40",70.93.250.3,"Mozilla/5.0 (Windows NT 10.0; Win64; x64; rv:91.0) Gecko/20100101 Firefox/91.0",,Firefox,91.0,Windows,10.0,5f461dd6c139dd6b46c7596cbd57cd79
209,1,"""","""","""","""","""",sampler,176,67406,0.0-6.0-170.0,"""","""","""","""","""","""","""","""","""","""","""","""","2021-08-13 21:47:40",70.93.250.3,"Mozilla/5.0 (Windows NT 10.0; Win64; x64; rv:91.0) Gecko/20100101 Firefox/91.0",,Firefox,91.0,Windows,10.0,5f461dd6c139dd6b46c7596cbd57cd79
209,1,"""","""","""","""","""",sampler,177,67407,0.0-6.0-171.0,"""","""","""","""","""","""","""","""","""","""","""","""","2021-08-13 21:47:40",70.93.250.3,"Mozilla/5.0 (Windows NT 10.0; Win64; x64; rv:91.0) Gecko/20100101 Firefox/91.0",,Firefox,91.0,Windows,10.0,5f461dd6c139dd6b46c7596cbd57cd79
209,1,"""","""","""","""","""",sampler,178,67408,0.0-6.0-172.0,"""","""","""","""","""","""","""","""","""","""","""","""","2021-08-13 21:47:40",70.93.250.3,"Mozilla/5.0 (Windows NT 10.0; Win64; x64; rv:91.0) Gecko/20100101 Firefox/91.0",,Firefox,91.0,Windows,10.0,5f461dd6c139dd6b46c7596cbd57cd79
209,1,"""","""","""","""","""",sampler,179,67408,0.0-6.0-173.0,"""","""","""","""","""","""","""","""","""","""","""","""","2021-08-13 21:47:40",70.93.250.3,"Mozilla/5.0 (Windows NT 10.0; Win64; x64; rv:91.0) Gecko/20100101 Firefox/91.0",,Firefox,91.0,Windows,10.0,5f461dd6c139dd6b46c7596cbd57cd79
209,1,"""","""","""","""","""",sampler,180,67408,0.0-6.0-174.0,"""","""","""","""","""","""","""","""","""","""","""","""","2021-08-13 21:47:40",70.93.250.3,"Mozilla/5.0 (Windows NT 10.0; Win64; x64; rv:91.0) Gecko/20100101 Firefox/91.0",,Firefox,91.0,Windows,10.0,5f461dd6c139dd6b46c7596cbd57cd79
209,1,"""","""","""","""","""",sampler,181,67408,0.0-6.0-175.0,"""","""","""","""","""","""","""","""","""","""","""","""","2021-08-13 21:47:40",70.93.250.3,"Mozilla/5.0 (Windows NT 10.0; Win64; x64; rv:91.0) Gecko/20100101 Firefox/91.0",,Firefox,91.0,Windows,10.0,5f461dd6c139dd6b46c7596cbd57cd79
209,1,"""","""","""","""","""",sampler,182,67408,0.0-6.0-176.0,"""","""","""","""","""","""","""","""","""","""","""","""","2021-08-13 21:47:40",70.93.250.3,"Mozilla/5.0 (Windows NT 10.0; Win64; x64; rv:91.0) Gecko/20100101 Firefox/91.0",,Firefox,91.0,Windows,10.0,5f461dd6c139dd6b46c7596cbd57cd79
209,1,"""","""","""","""","""",sampler,183,67408,0.0-6.0-177.0,"""","""","""","""","""","""","""","""","""","""","""","""","2021-08-13 21:47:40",70.93.250.3,"Mozilla/5.0 (Windows NT 10.0; Win64; x64; rv:91.0) Gecko/20100101 Firefox/91.0",,Firefox,91.0,Windows,10.0,5f461dd6c139dd6b46c7596cbd57cd79
209,1,"""","""","""","""","""",sampler,184,67408,0.0-6.0-178.0,"""","""","""","""","""","""","""","""","""","""","""","""","2021-08-13 21:47:40",70.93.250.3,"Mozilla/5.0 (Windows NT 10.0; Win64; x64; rv:91.0) Gecko/20100101 Firefox/91.0",,Firefox,91.0,Windows,10.0,5f461dd6c139dd6b46c7596cbd57cd79
209,1,"""","""","""","""","""",sampler,185,67408,0.0-6.0-179.0,"""","""","""","""","""","""","""","""","""","""","""","""","2021-08-13 21:47:40",70.93.250.3,"Mozilla/5.0 (Windows NT 10.0; Win64; x64; rv:91.0) Gecko/20100101 Firefox/91.0",,Firefox,91.0,Windows,10.0,5f461dd6c139dd6b46c7596cbd57cd79
209,1,"""","""","""","""","""",sampler,186,67408,0.0-6.0-180.0,"""","""","""","""","""","""","""","""","""","""","""","""","2021-08-13 21:47:40",70.93.250.3,"Mozilla/5.0 (Windows NT 10.0; Win64; x64; rv:91.0) Gecko/20100101 Firefox/91.0",,Firefox,91.0,Windows,10.0,5f461dd6c139dd6b46c7596cbd57cd79
209,1,"""","""","""","""","""",sampler,187,67408,0.0-6.0-181.0,"""","""","""","""","""","""","""","""","""","""","""","""","2021-08-13 21:47:40",70.93.250.3,"Mozilla/5.0 (Windows NT 10.0; Win64; x64; rv:91.0) Gecko/20100101 Firefox/91.0",,Firefox,91.0,Windows,10.0,5f461dd6c139dd6b46c7596cbd57cd79
209,1,"""","""","""","""","""",sampler,188,67408,0.0-6.0-182.0,"""","""","""","""","""","""","""","""","""","""","""","""","2021-08-13 21:47:40",70.93.250.3,"Mozilla/5.0 (Windows NT 10.0; Win64; x64; rv:91.0) Gecko/20100101 Firefox/91.0",,Firefox,91.0,Windows,10.0,5f461dd6c139dd6b46c7596cbd57cd79
209,1,"""","""","""","""","""",sampler,189,67408,0.0-6.0-183.0,"""","""","""","""","""","""","""","""","""","""","""","""","2021-08-13 21:47:40",70.93.250.3,"Mozilla/5.0 (Windows NT 10.0; Win64; x64; rv:91.0) Gecko/20100101 Firefox/91.0",,Firefox,91.0,Windows,10.0,5f461dd6c139dd6b46c7596cbd57cd79
209,1,"""","""","""","""","""",sampler,190,67409,0.0-6.0-184.0,"""","""","""","""","""","""","""","""","""","""","""","""","2021-08-13 21:47:40",70.93.250.3,"Mozilla/5.0 (Windows NT 10.0; Win64; x64; rv:91.0) Gecko/20100101 Firefox/91.0",,Firefox,91.0,Windows,10.0,5f461dd6c139dd6b46c7596cbd57cd79
209,1,"""","""","""","""","""",sampler,191,67409,0.0-6.0-185.0,"""","""","""","""","""","""","""","""","""","""","""","""","2021-08-13 21:47:40",70.93.250.3,"Mozilla/5.0 (Windows NT 10.0; Win64; x64; rv:91.0) Gecko/20100101 Firefox/91.0",,Firefox,91.0,Windows,10.0,5f461dd6c139dd6b46c7596cbd57cd79
209,1,"""","""","""","""","""",sampler,192,67409,0.0-6.0-186.0,"""","""","""","""","""","""","""","""","""","""","""","""","2021-08-13 21:47:40",70.93.250.3,"Mozilla/5.0 (Windows NT 10.0; Win64; x64; rv:91.0) Gecko/20100101 Firefox/91.0",,Firefox,91.0,Windows,10.0,5f461dd6c139dd6b46c7596cbd57cd79
209,1,"""","""","""","""","""",sampler,193,67409,0.0-6.0-187.0,"""","""","""","""","""","""","""","""","""","""","""","""","2021-08-13 21:47:40",70.93.250.3,"Mozilla/5.0 (Windows NT 10.0; Win64; x64; rv:91.0) Gecko/20100101 Firefox/91.0",,Firefox,91.0,Windows,10.0,5f461dd6c139dd6b46c7596cbd57cd79
209,1,"""","""","""","""","""",sampler,194,67409,0.0-6.0-188.0,"""","""","""","""","""","""","""","""","""","""","""","""","2021-08-13 21:47:40",70.93.250.3,"Mozilla/5.0 (Windows NT 10.0; Win64; x64; rv:91.0) Gecko/20100101 Firefox/91.0",,Firefox,91.0,Windows,10.0,5f461dd6c139dd6b46c7596cbd57cd79
209,1,"""","""","""","""","""",sampler,195,67409,0.0-6.0-189.0,"""","""","""","""","""","""","""","""","""","""","""","""","2021-08-13 21:47:40",70.93.250.3,"Mozilla/5.0 (Windows NT 10.0; Win64; x64; rv:91.0) Gecko/20100101 Firefox/91.0",,Firefox,91.0,Windows,10.0,5f461dd6c139dd6b46c7596cbd57cd79
209,1,"""","""","""","""","""",sampler,196,67410,0.0-6.0-190.0,"""","""","""","""","""","""","""","""","""","""","""","""","2021-08-13 21:47:40",70.93.250.3,"Mozilla/5.0 (Windows NT 10.0; Win64; x64; rv:91.0) Gecko/20100101 Firefox/91.0",,Firefox,91.0,Windows,10.0,5f461dd6c139dd6b46c7596cbd57cd79
209,1,"""","""","""","""","""",sampler,197,67410,0.0-6.0-191.0,"""","""","""","""","""","""","""","""","""","""","""","""","2021-08-13 21:47:40",70.93.250.3,"Mozilla/5.0 (Windows NT 10.0; Win64; x64; rv:91.0) Gecko/20100101 Firefox/91.0",,Firefox,91.0,Windows,10.0,5f461dd6c139dd6b46c7596cbd57cd79
209,1,"""","""","""","""","""",sampler,198,67411,0.0-6.0-192.0,"""","""","""","""","""","""","""","""","""","""","""","""","2021-08-13 21:47:40",70.93.250.3,"Mozilla/5.0 (Windows NT 10.0; Win64; x64; rv:91.0) Gecko/20100101 Firefox/91.0",,Firefox,91.0,Windows,10.0,5f461dd6c139dd6b46c7596cbd57cd79
209,1,"""","""","""","""","""",sampler,199,67411,0.0-6.0-193.0,"""","""","""","""","""","""","""","""","""","""","""","""","2021-08-13 21:47:40",70.93.250.3,"Mozilla/5.0 (Windows NT 10.0; Win64; x64; rv:91.0) Gecko/20100101 Firefox/91.0",,Firefox,91.0,Windows,10.0,5f461dd6c139dd6b46c7596cbd57cd79
209,1,"""","""","""","""","""",sampler,200,67411,0.0-6.0-194.0,"""","""","""","""","""","""","""","""","""","""","""","""","2021-08-13 21:47:40",70.93.250.3,"Mozilla/5.0 (Windows NT 10.0; Win64; x64; rv:91.0) Gecko/20100101 Firefox/91.0",,Firefox,91.0,Windows,10.0,5f461dd6c139dd6b46c7596cbd57cd79
209,1,"""","""","""","""","""",sampler,201,67411,0.0-6.0-195.0,"""","""","""","""","""","""","""","""","""","""","""","""","2021-08-13 21:47:40",70.93.250.3,"Mozilla/5.0 (Windows NT 10.0; Win64; x64; rv:91.0) Gecko/20100101 Firefox/91.0",,Firefox,91.0,Windows,10.0,5f461dd6c139dd6b46c7596cbd57cd79
209,1,"""","""","""","""","""",sampler,202,67411,0.0-6.0-196.0,"""","""","""","""","""","""","""","""","""","""","""","""","2021-08-13 21:47:40",70.93.250.3,"Mozilla/5.0 (Windows NT 10.0; Win64; x64; rv:91.0) Gecko/20100101 Firefox/91.0",,Firefox,91.0,Windows,10.0,5f461dd6c139dd6b46c7596cbd57cd79
209,1,"""","""","""","""","""",sampler,203,67411,0.0-6.0-197.0,"""","""","""","""","""","""","""","""","""","""","""","""","2021-08-13 21:47:40",70.93.250.3,"Mozilla/5.0 (Windows NT 10.0; Win64; x64; rv:91.0) Gecko/20100101 Firefox/91.0",,Firefox,91.0,Windows,10.0,5f461dd6c139dd6b46c7596cbd57cd79
209,1,"""","""","""","""","""",sampler,204,67411,0.0-6.0-198.0,"""","""","""","""","""","""","""","""","""","""","""","""","2021-08-13 21:47:40",70.93.250.3,"Mozilla/5.0 (Windows NT 10.0; Win64; x64; rv:91.0) Gecko/20100101 Firefox/91.0",,Firefox,91.0,Windows,10.0,5f461dd6c139dd6b46c7596cbd57cd79
209,1,"""","""","""","""","""",sampler,205,67412,0.0-6.0-199.0,"""","""","""","""","""","""","""","""","""","""","""","""","2021-08-13 21:47:40",70.93.250.3,"Mozilla/5.0 (Windows NT 10.0; Win64; x64; rv:91.0) Gecko/20100101 Firefox/91.0",,Firefox,91.0,Windows,10.0,5f461dd6c139dd6b46c7596cbd57cd79
209,1,"""","""","""","""","""",sampler,206,67412,0.0-6.0-200.0,"""","""","""","""","""","""","""","""","""","""","""","""","2021-08-13 21:47:40",70.93.250.3,"Mozilla/5.0 (Windows NT 10.0; Win64; x64; rv:91.0) Gecko/20100101 Firefox/91.0",,Firefox,91.0,Windows,10.0,5f461dd6c139dd6b46c7596cbd57cd79
209,1,"""","""","""","""","""",sampler,207,67413,0.0-6.0-201.0,"""","""","""","""","""","""","""","""","""","""","""","""","2021-08-13 21:47:40",70.93.250.3,"Mozilla/5.0 (Windows NT 10.0; Win64; x64; rv:91.0) Gecko/20100101 Firefox/91.0",,Firefox,91.0,Windows,10.0,5f461dd6c139dd6b46c7596cbd57cd79
209,1,"""","""","""","""","""",sampler,208,67413,0.0-6.0-202.0,"""","""","""","""","""","""","""","""","""","""","""","""","2021-08-13 21:47:40",70.93.250.3,"Mozilla/5.0 (Windows NT 10.0; Win64; x64; rv:91.0) Gecko/20100101 Firefox/91.0",,Firefox,91.0,Windows,10.0,5f461dd6c139dd6b46c7596cbd57cd79
209,1,"""","""","""","""","""",sampler,209,67413,0.0-6.0-203.0,"""","""","""","""","""","""","""","""","""","""","""","""","2021-08-13 21:47:40",70.93.250.3,"Mozilla/5.0 (Windows NT 10.0; Win64; x64; rv:91.0) Gecko/20100101 Firefox/91.0",,Firefox,91.0,Windows,10.0,5f461dd6c139dd6b46c7596cbd57cd79
209,1,"""","""","""","""","""",sampler,210,67413,0.0-6.0-204.0,"""","""","""","""","""","""","""","""","""","""","""","""","2021-08-13 21:47:40",70.93.250.3,"Mozilla/5.0 (Windows NT 10.0; Win64; x64; rv:91.0) Gecko/20100101 Firefox/91.0",,Firefox,91.0,Windows,10.0,5f461dd6c139dd6b46c7596cbd57cd79
209,1,"""","""","""","""","""",sampler,211,67413,0.0-6.0-205.0,"""","""","""","""","""","""","""","""","""","""","""","""","2021-08-13 21:47:40",70.93.250.3,"Mozilla/5.0 (Windows NT 10.0; Win64; x64; rv:91.0) Gecko/20100101 Firefox/91.0",,Firefox,91.0,Windows,10.0,5f461dd6c139dd6b46c7596cbd57cd79
209,1,"""","""","""","""","""",sampler,212,67413,0.0-6.0-206.0,"""","""","""","""","""","""","""","""","""","""","""","""","2021-08-13 21:47:40",70.93.250.3,"Mozilla/5.0 (Windows NT 10.0; Win64; x64; rv:91.0) Gecko/20100101 Firefox/91.0",,Firefox,91.0,Windows,10.0,5f461dd6c139dd6b46c7596cbd57cd79
209,1,"""","""","""","""","""",sampler,213,67414,0.0-6.0-207.0,"""","""","""","""","""","""","""","""","""","""","""","""","2021-08-13 21:47:40",70.93.250.3,"Mozilla/5.0 (Windows NT 10.0; Win64; x64; rv:91.0) Gecko/20100101 Firefox/91.0",,Firefox,91.0,Windows,10.0,5f461dd6c139dd6b46c7596cbd57cd79
209,1,"""","""","""","""","""",sampler,214,67414,0.0-6.0-208.0,"""","""","""","""","""","""","""","""","""","""","""","""","2021-08-13 21:47:40",70.93.250.3,"Mozilla/5.0 (Windows NT 10.0; Win64; x64; rv:91.0) Gecko/20100101 Firefox/91.0",,Firefox,91.0,Windows,10.0,5f461dd6c139dd6b46c7596cbd57cd79
209,1,"""","""","""","""","""",sampler,215,67414,0.0-6.0-209.0,"""","""","""","""","""","""","""","""","""","""","""","""","2021-08-13 21:47:40",70.93.250.3,"Mozilla/5.0 (Windows NT 10.0; Win64; x64; rv:91.0) Gecko/20100101 Firefox/91.0",,Firefox,91.0,Windows,10.0,5f461dd6c139dd6b46c7596cbd57cd79
209,1,"""","""","""","""","""",sampler,216,67414,0.0-6.0-210.0,"""","""","""","""","""","""","""","""","""","""","""","""","2021-08-13 21:47:40",70.93.250.3,"Mozilla/5.0 (Windows NT 10.0; Win64; x64; rv:91.0) Gecko/20100101 Firefox/91.0",,Firefox,91.0,Windows,10.0,5f461dd6c139dd6b46c7596cbd57cd79
209,1,"""","""","""","""","""",sampler,217,67414,0.0-6.0-211.0,"""","""","""","""","""","""","""","""","""","""","""","""","2021-08-13 21:47:40",70.93.250.3,"Mozilla/5.0 (Windows NT 10.0; Win64; x64; rv:91.0) Gecko/20100101 Firefox/91.0",,Firefox,91.0,Windows,10.0,5f461dd6c139dd6b46c7596cbd57cd79
209,1,"""","""","""","""","""",sampler,218,67414,0.0-6.0-212.0,"""","""","""","""","""","""","""","""","""","""","""","""","2021-08-13 21:47:40",70.93.250.3,"Mozilla/5.0 (Windows NT 10.0; Win64; x64; rv:91.0) Gecko/20100101 Firefox/91.0",,Firefox,91.0,Windows,10.0,5f461dd6c139dd6b46c7596cbd57cd79
209,1,"""","""","""","""","""",sampler,219,67414,0.0-6.0-213.0,"""","""","""","""","""","""","""","""","""","""","""","""","2021-08-13 21:47:40",70.93.250.3,"Mozilla/5.0 (Windows NT 10.0; Win64; x64; rv:91.0) Gecko/20100101 Firefox/91.0",,Firefox,91.0,Windows,10.0,5f461dd6c139dd6b46c7596cbd57cd79
209,1,"""","""","""","""","""",sampler,220,67414,0.0-6.0-214.0,"""","""","""","""","""","""","""","""","""","""","""","""","2021-08-13 21:47:40",70.93.250.3,"Mozilla/5.0 (Windows NT 10.0; Win64; x64; rv:91.0) Gecko/20100101 Firefox/91.0",,Firefox,91.0,Windows,10.0,5f461dd6c139dd6b46c7596cbd57cd79
209,1,"""","""","""","""","""",sampler,221,67414,0.0-6.0-215.0,"""","""","""","""","""","""","""","""","""","""","""","""","2021-08-13 21:47:40",70.93.250.3,"Mozilla/5.0 (Windows NT 10.0; Win64; x64; rv:91.0) Gecko/20100101 Firefox/91.0",,Firefox,91.0,Windows,10.0,5f461dd6c139dd6b46c7596cbd57cd79
209,1,"""","""","""","""","""",sampler,222,67414,0.0-6.0-216.0,"""","""","""","""","""","""","""","""","""","""","""","""","2021-08-13 21:47:40",70.93.250.3,"Mozilla/5.0 (Windows NT 10.0; Win64; x64; rv:91.0) Gecko/20100101 Firefox/91.0",,Firefox,91.0,Windows,10.0,5f461dd6c139dd6b46c7596cbd57cd79
209,1,"""","""","""","""","""",sampler,223,67414,0.0-6.0-217.0,"""","""","""","""","""","""","""","""","""","""","""","""","2021-08-13 21:47:40",70.93.250.3,"Mozilla/5.0 (Windows NT 10.0; Win64; x64; rv:91.0) Gecko/20100101 Firefox/91.0",,Firefox,91.0,Windows,10.0,5f461dd6c139dd6b46c7596cbd57cd79
209,1,"""","""","""","""","""",sampler,224,67415,0.0-6.0-218.0,"""","""","""","""","""","""","""","""","""","""","""","""","2021-08-13 21:47:40",70.93.250.3,"Mozilla/5.0 (Windows NT 10.0; Win64; x64; rv:91.0) Gecko/20100101 Firefox/91.0",,Firefox,91.0,Windows,10.0,5f461dd6c139dd6b46c7596cbd57cd79
209,1,"""","""","""","""","""",sampler,225,67415,0.0-6.0-219.0,"""","""","""","""","""","""","""","""","""","""","""","""","2021-08-13 21:47:40",70.93.250.3,"Mozilla/5.0 (Windows NT 10.0; Win64; x64; rv:91.0) Gecko/20100101 Firefox/91.0",,Firefox,91.0,Windows,10.0,5f461dd6c139dd6b46c7596cbd57cd79
209,1,"""","""","""","""","""",sampler,226,67415,0.0-6.0-220.0,"""","""","""","""","""","""","""","""","""","""","""","""","2021-08-13 21:47:40",70.93.250.3,"Mozilla/5.0 (Windows NT 10.0; Win64; x64; rv:91.0) Gecko/20100101 Firefox/91.0",,Firefox,91.0,Windows,10.0,5f461dd6c139dd6b46c7596cbd57cd79
209,1,"""","""","""","""","""",sampler,227,67415,0.0-6.0-221.0,"""","""","""","""","""","""","""","""","""","""","""","""","2021-08-13 21:47:40",70.93.250.3,"Mozilla/5.0 (Windows NT 10.0; Win64; x64; rv:91.0) Gecko/20100101 Firefox/91.0",,Firefox,91.0,Windows,10.0,5f461dd6c139dd6b46c7596cbd57cd79
209,1,"""","""","""","""","""",sampler,228,67415,0.0-6.0-222.0,"""","""","""","""","""","""","""","""","""","""","""","""","2021-08-13 21:47:40",70.93.250.3,"Mozilla/5.0 (Windows NT 10.0; Win64; x64; rv:91.0) Gecko/20100101 Firefox/91.0",,Firefox,91.0,Windows,10.0,5f461dd6c139dd6b46c7596cbd57cd79
209,1,"""","""","""","""","""",sampler,229,67416,0.0-6.0-223.0,"""","""","""","""","""","""","""","""","""","""","""","""","2021-08-13 21:47:40",70.93.250.3,"Mozilla/5.0 (Windows NT 10.0; Win64; x64; rv:91.0) Gecko/20100101 Firefox/91.0",,Firefox,91.0,Windows,10.0,5f461dd6c139dd6b46c7596cbd57cd79
209,1,"""","""","""","""","""",sampler,230,67416,0.0-6.0-224.0,"""","""","""","""","""","""","""","""","""","""","""","""","2021-08-13 21:47:40",70.93.250.3,"Mozilla/5.0 (Windows NT 10.0; Win64; x64; rv:91.0) Gecko/20100101 Firefox/91.0",,Firefox,91.0,Windows,10.0,5f461dd6c139dd6b46c7596cbd57cd79
209,1,"""","""","""","""","""",sampler,231,67416,0.0-6.0-225.0,"""","""","""","""","""","""","""","""","""","""","""","""","2021-08-13 21:47:40",70.93.250.3,"Mozilla/5.0 (Windows NT 10.0; Win64; x64; rv:91.0) Gecko/20100101 Firefox/91.0",,Firefox,91.0,Windows,10.0,5f461dd6c139dd6b46c7596cbd57cd79
209,1,"""","""","""","""","""",sampler,232,67416,0.0-6.0-226.0,"""","""","""","""","""","""","""","""","""","""","""","""","2021-08-13 21:47:40",70.93.250.3,"Mozilla/5.0 (Windows NT 10.0; Win64; x64; rv:91.0) Gecko/20100101 Firefox/91.0",,Firefox,91.0,Windows,10.0,5f461dd6c139dd6b46c7596cbd57cd79
209,1,"""","""","""","""","""",sampler,233,67416,0.0-6.0-227.0,"""","""","""","""","""","""","""","""","""","""","""","""","2021-08-13 21:47:40",70.93.250.3,"Mozilla/5.0 (Windows NT 10.0; Win64; x64; rv:91.0) Gecko/20100101 Firefox/91.0",,Firefox,91.0,Windows,10.0,5f461dd6c139dd6b46c7596cbd57cd79
209,1,"""","""","""","""","""",sampler,234,67416,0.0-6.0-228.0,"""","""","""","""","""","""","""","""","""","""","""","""","2021-08-13 21:47:40",70.93.250.3,"Mozilla/5.0 (Windows NT 10.0; Win64; x64; rv:91.0) Gecko/20100101 Firefox/91.0",,Firefox,91.0,Windows,10.0,5f461dd6c139dd6b46c7596cbd57cd79
209,1,"""","""","""","""","""",sampler,235,67417,0.0-6.0-229.0,"""","""","""","""","""","""","""","""","""","""","""","""","2021-08-13 21:47:40",70.93.250.3,"Mozilla/5.0 (Windows NT 10.0; Win64; x64; rv:91.0) Gecko/20100101 Firefox/91.0",,Firefox,91.0,Windows,10.0,5f461dd6c139dd6b46c7596cbd57cd79
209,1,"""","""","""","""","""",sampler,236,67418,0.0-6.0-230.0,"""","""","""","""","""","""","""","""","""","""","""","""","2021-08-13 21:47:40",70.93.250.3,"Mozilla/5.0 (Windows NT 10.0; Win64; x64; rv:91.0) Gecko/20100101 Firefox/91.0",,Firefox,91.0,Windows,10.0,5f461dd6c139dd6b46c7596cbd57cd79
209,1,"""","""","""","""","""",sampler,237,67418,0.0-6.0-231.0,"""","""","""","""","""","""","""","""","""","""","""","""","2021-08-13 21:47:40",70.93.250.3,"Mozilla/5.0 (Windows NT 10.0; Win64; x64; rv:91.0) Gecko/20100101 Firefox/91.0",,Firefox,91.0,Windows,10.0,5f461dd6c139dd6b46c7596cbd57cd79
209,1,"""","""","""","""","""",sampler,238,67418,0.0-6.0-232.0,"""","""","""","""","""","""","""","""","""","""","""","""","2021-08-13 21:47:40",70.93.250.3,"Mozilla/5.0 (Windows NT 10.0; Win64; x64; rv:91.0) Gecko/20100101 Firefox/91.0",,Firefox,91.0,Windows,10.0,5f461dd6c139dd6b46c7596cbd57cd79
209,1,"""","""","""","""","""",sampler,239,67418,0.0-6.0-233.0,"""","""","""","""","""","""","""","""","""","""","""","""","2021-08-13 21:47:40",70.93.250.3,"Mozilla/5.0 (Windows NT 10.0; Win64; x64; rv:91.0) Gecko/20100101 Firefox/91.0",,Firefox,91.0,Windows,10.0,5f461dd6c139dd6b46c7596cbd57cd79
209,1,"""","""","""","""","""",sampler,240,67418,0.0-6.0-234.0,"""","""","""","""","""","""","""","""","""","""","""","""","2021-08-13 21:47:40",70.93.250.3,"Mozilla/5.0 (Windows NT 10.0; Win64; x64; rv:91.0) Gecko/20100101 Firefox/91.0",,Firefox,91.0,Windows,10.0,5f461dd6c139dd6b46c7596cbd57cd79
209,1,"""","""","""","""","""",sampler,241,67418,0.0-6.0-235.0,"""","""","""","""","""","""","""","""","""","""","""","""","2021-08-13 21:47:40",70.93.250.3,"Mozilla/5.0 (Windows NT 10.0; Win64; x64; rv:91.0) Gecko/20100101 Firefox/91.0",,Firefox,91.0,Windows,10.0,5f461dd6c139dd6b46c7596cbd57cd79
209,1,"""","""","""","""","""",sampler,242,67418,0.0-6.0-236.0,"""","""","""","""","""","""","""","""","""","""","""","""","2021-08-13 21:47:40",70.93.250.3,"Mozilla/5.0 (Windows NT 10.0; Win64; x64; rv:91.0) Gecko/20100101 Firefox/91.0",,Firefox,91.0,Windows,10.0,5f461dd6c139dd6b46c7596cbd57cd79
209,1,"""","""","""","""","""",sampler,243,67418,0.0-6.0-237.0,"""","""","""","""","""","""","""","""","""","""","""","""","2021-08-13 21:47:40",70.93.250.3,"Mozilla/5.0 (Windows NT 10.0; Win64; x64; rv:91.0) Gecko/20100101 Firefox/91.0",,Firefox,91.0,Windows,10.0,5f461dd6c139dd6b46c7596cbd57cd79
209,1,"""","""","""","""","""",sampler,244,67418,0.0-6.0-238.0,"""","""","""","""","""","""","""","""","""","""","""","""","2021-08-13 21:47:40",70.93.250.3,"Mozilla/5.0 (Windows NT 10.0; Win64; x64; rv:91.0) Gecko/20100101 Firefox/91.0",,Firefox,91.0,Windows,10.0,5f461dd6c139dd6b46c7596cbd57cd79
209,1,"""","""","""","""","""",sampler,245,67418,0.0-6.0-239.0,"""","""","""","""","""","""","""","""","""","""","""","""","2021-08-13 21:47:40",70.93.250.3,"Mozilla/5.0 (Windows NT 10.0; Win64; x64; rv:91.0) Gecko/20100101 Firefox/91.0",,Firefox,91.0,Windows,10.0,5f461dd6c139dd6b46c7596cbd57cd79
209,1,"""","""","""","""","""",sampler,246,67418,0.0-6.0-240.0,"""","""","""","""","""","""","""","""","""","""","""","""","2021-08-13 21:47:40",70.93.250.3,"Mozilla/5.0 (Windows NT 10.0; Win64; x64; rv:91.0) Gecko/20100101 Firefox/91.0",,Firefox,91.0,Windows,10.0,5f461dd6c139dd6b46c7596cbd57cd79
209,1,"""","""","""","""","""",sampler,247,67419,0.0-6.0-241.0,"""","""","""","""","""","""","""","""","""","""","""","""","2021-08-13 21:47:40",70.93.250.3,"Mozilla/5.0 (Windows NT 10.0; Win64; x64; rv:91.0) Gecko/20100101 Firefox/91.0",,Firefox,91.0,Windows,10.0,5f461dd6c139dd6b46c7596cbd57cd79
209,1,"""","""","""","""","""",sampler,248,67419,0.0-6.0-242.0,"""","""","""","""","""","""","""","""","""","""","""","""","2021-08-13 21:47:40",70.93.250.3,"Mozilla/5.0 (Windows NT 10.0; Win64; x64; rv:91.0) Gecko/20100101 Firefox/91.0",,Firefox,91.0,Windows,10.0,5f461dd6c139dd6b46c7596cbd57cd79
209,1,"""","""","""","""","""",sampler,249,67419,0.0-6.0-243.0,"""","""","""","""","""","""","""","""","""","""","""","""","2021-08-13 21:47:40",70.93.250.3,"Mozilla/5.0 (Windows NT 10.0; Win64; x64; rv:91.0) Gecko/20100101 Firefox/91.0",,Firefox,91.0,Windows,10.0,5f461dd6c139dd6b46c7596cbd57cd79
209,1,"""","""","""","""","""",sampler,250,67419,0.0-6.0-244.0,"""","""","""","""","""","""","""","""","""","""","""","""","2021-08-13 21:47:40",70.93.250.3,"Mozilla/5.0 (Windows NT 10.0; Win64; x64; rv:91.0) Gecko/20100101 Firefox/91.0",,Firefox,91.0,Windows,10.0,5f461dd6c139dd6b46c7596cbd57cd79
209,1,"""","""","""","""","""",sampler,251,67419,0.0-6.0-245.0,"""","""","""","""","""","""","""","""","""","""","""","""","2021-08-13 21:47:40",70.93.250.3,"Mozilla/5.0 (Windows NT 10.0; Win64; x64; rv:91.0) Gecko/20100101 Firefox/91.0",,Firefox,91.0,Windows,10.0,5f461dd6c139dd6b46c7596cbd57cd79
209,1,"""","""","""","""","""",sampler,252,67419,0.0-6.0-246.0,"""","""","""","""","""","""","""","""","""","""","""","""","2021-08-13 21:47:40",70.93.250.3,"Mozilla/5.0 (Windows NT 10.0; Win64; x64; rv:91.0) Gecko/20100101 Firefox/91.0",,Firefox,91.0,Windows,10.0,5f461dd6c139dd6b46c7596cbd57cd79
209,1,"""","""","""","""","""",sampler,253,67420,0.0-6.0-247.0,"""","""","""","""","""","""","""","""","""","""","""","""","2021-08-13 21:47:40",70.93.250.3,"Mozilla/5.0 (Windows NT 10.0; Win64; x64; rv:91.0) Gecko/20100101 Firefox/91.0",,Firefox,91.0,Windows,10.0,5f461dd6c139dd6b46c7596cbd57cd79
209,1,"""","""","""","""","""",sampler,254,67420,0.0-6.0-248.0,"""","""","""","""","""","""","""","""","""","""","""","""","2021-08-13 21:47:40",70.93.250.3,"Mozilla/5.0 (Windows NT 10.0; Win64; x64; rv:91.0) Gecko/20100101 Firefox/91.0",,Firefox,91.0,Windows,10.0,5f461dd6c139dd6b46c7596cbd57cd79
209,1,"""","""","""","""","""",sampler,255,67421,0.0-6.0-249.0,"""","""","""","""","""","""","""","""","""","""","""","""","2021-08-13 21:47:40",70.93.250.3,"Mozilla/5.0 (Windows NT 10.0; Win64; x64; rv:91.0) Gecko/20100101 Firefox/91.0",,Firefox,91.0,Windows,10.0,5f461dd6c139dd6b46c7596cbd57cd79
209,1,"""","""","""","""","""",sampler,256,67421,0.0-6.0-250.0,"""","""","""","""","""","""","""","""","""","""","""","""","2021-08-13 21:47:40",70.93.250.3,"Mozilla/5.0 (Windows NT 10.0; Win64; x64; rv:91.0) Gecko/20100101 Firefox/91.0",,Firefox,91.0,Windows,10.0,5f461dd6c139dd6b46c7596cbd57cd79
209,1,"""","""","""","""","""",sampler,257,67421,0.0-6.0-251.0,"""","""","""","""","""","""","""","""","""","""","""","""","2021-08-13 21:47:40",70.93.250.3,"Mozilla/5.0 (Windows NT 10.0; Win64; x64; rv:91.0) Gecko/20100101 Firefox/91.0",,Firefox,91.0,Windows,10.0,5f461dd6c139dd6b46c7596cbd57cd79
209,1,"""","""","""","""","""",sampler,258,67421,0.0-6.0-252.0,"""","""","""","""","""","""","""","""","""","""","""","""","2021-08-13 21:47:40",70.93.250.3,"Mozilla/5.0 (Windows NT 10.0; Win64; x64; rv:91.0) Gecko/20100101 Firefox/91.0",,Firefox,91.0,Windows,10.0,5f461dd6c139dd6b46c7596cbd57cd79
209,1,"""","""","""","""","""",sampler,259,67421,0.0-6.0-253.0,"""","""","""","""","""","""","""","""","""","""","""","""","2021-08-13 21:47:40",70.93.250.3,"Mozilla/5.0 (Windows NT 10.0; Win64; x64; rv:91.0) Gecko/20100101 Firefox/91.0",,Firefox,91.0,Windows,10.0,5f461dd6c139dd6b46c7596cbd57cd79
209,1,"""","""","""","""","""",sampler,260,67421,0.0-6.0-254.0,"""","""","""","""","""","""","""","""","""","""","""","""","2021-08-13 21:47:40",70.93.250.3,"Mozilla/5.0 (Windows NT 10.0; Win64; x64; rv:91.0) Gecko/20100101 Firefox/91.0",,Firefox,91.0,Windows,10.0,5f461dd6c139dd6b46c7596cbd57cd79
209,1,"""","""","""","""","""",sampler,261,67422,0.0-6.0-255.0,"""","""","""","""","""","""","""","""","""","""","""","""","2021-08-13 21:47:40",70.93.250.3,"Mozilla/5.0 (Windows NT 10.0; Win64; x64; rv:91.0) Gecko/20100101 Firefox/91.0",,Firefox,91.0,Windows,10.0,5f461dd6c139dd6b46c7596cbd57cd79
209,1,"""","""","""","""","""",sampler,262,67422,0.0-6.0-256.0,"""","""","""","""","""","""","""","""","""","""","""","""","2021-08-13 21:47:40",70.93.250.3,"Mozilla/5.0 (Windows NT 10.0; Win64; x64; rv:91.0) Gecko/20100101 Firefox/91.0",,Firefox,91.0,Windows,10.0,5f461dd6c139dd6b46c7596cbd57cd79
209,1,"""","""","""","""","""",sampler,263,67422,0.0-6.0-257.0,"""","""","""","""","""","""","""","""","""","""","""","""","2021-08-13 21:47:40",70.93.250.3,"Mozilla/5.0 (Windows NT 10.0; Win64; x64; rv:91.0) Gecko/20100101 Firefox/91.0",,Firefox,91.0,Windows,10.0,5f461dd6c139dd6b46c7596cbd57cd79
209,1,"""","""","""","""","""",sampler,264,67422,0.0-6.0-258.0,"""","""","""","""","""","""","""","""","""","""","""","""","2021-08-13 21:47:40",70.93.250.3,"Mozilla/5.0 (Windows NT 10.0; Win64; x64; rv:91.0) Gecko/20100101 Firefox/91.0",,Firefox,91.0,Windows,10.0,5f461dd6c139dd6b46c7596cbd57cd79
209,1,"""","""","""","""","""",sampler,265,67422,0.0-6.0-259.0,"""","""","""","""","""","""","""","""","""","""","""","""","2021-08-13 21:47:40",70.93.250.3,"Mozilla/5.0 (Windows NT 10.0; Win64; x64; rv:91.0) Gecko/20100101 Firefox/91.0",,Firefox,91.0,Windows,10.0,5f461dd6c139dd6b46c7596cbd57cd79
209,1,"""","""","""","""","""",sampler,266,67422,0.0-6.0-260.0,"""","""","""","""","""","""","""","""","""","""","""","""","2021-08-13 21:47:40",70.93.250.3,"Mozilla/5.0 (Windows NT 10.0; Win64; x64; rv:91.0) Gecko/20100101 Firefox/91.0",,Firefox,91.0,Windows,10.0,5f461dd6c139dd6b46c7596cbd57cd79
209,1,"""","""","""","""","""",sampler,267,67423,0.0-6.0-261.0,"""","""","""","""","""","""","""","""","""","""","""","""","2021-08-13 21:47:40",70.93.250.3,"Mozilla/5.0 (Windows NT 10.0; Win64; x64; rv:91.0) Gecko/20100101 Firefox/91.0",,Firefox,91.0,Windows,10.0,5f461dd6c139dd6b46c7596cbd57cd79
209,1,"""","""","""","""","""",sampler,268,67424,0.0-6.0-262.0,"""","""","""","""","""","""","""","""","""","""","""","""","2021-08-13 21:47:40",70.93.250.3,"Mozilla/5.0 (Windows NT 10.0; Win64; x64; rv:91.0) Gecko/20100101 Firefox/91.0",,Firefox,91.0,Windows,10.0,5f461dd6c139dd6b46c7596cbd57cd79
209,1,"""","""","""","""","""",sampler,269,67424,0.0-6.0-263.0,"""","""","""","""","""","""","""","""","""","""","""","""","2021-08-13 21:47:40",70.93.250.3,"Mozilla/5.0 (Windows NT 10.0; Win64; x64; rv:91.0) Gecko/20100101 Firefox/91.0",,Firefox,91.0,Windows,10.0,5f461dd6c139dd6b46c7596cbd57cd79
209,1,"""","""","""","""","""",sampler,270,67424,0.0-6.0-264.0,"""","""","""","""","""","""","""","""","""","""","""","""","2021-08-13 21:47:40",70.93.250.3,"Mozilla/5.0 (Windows NT 10.0; Win64; x64; rv:91.0) Gecko/20100101 Firefox/91.0",,Firefox,91.0,Windows,10.0,5f461dd6c139dd6b46c7596cbd57cd79
209,1,"""","""","""","""","""",sampler,271,67424,0.0-6.0-265.0,"""","""","""","""","""","""","""","""","""","""","""","""","2021-08-13 21:47:40",70.93.250.3,"Mozilla/5.0 (Windows NT 10.0; Win64; x64; rv:91.0) Gecko/20100101 Firefox/91.0",,Firefox,91.0,Windows,10.0,5f461dd6c139dd6b46c7596cbd57cd79
209,1,"""","""","""","""","""",sampler,272,67424,0.0-6.0-266.0,"""","""","""","""","""","""","""","""","""","""","""","""","2021-08-13 21:47:40",70.93.250.3,"Mozilla/5.0 (Windows NT 10.0; Win64; x64; rv:91.0) Gecko/20100101 Firefox/91.0",,Firefox,91.0,Windows,10.0,5f461dd6c139dd6b46c7596cbd57cd79
209,1,"""","""","""","""","""",sampler,273,67424,0.0-6.0-267.0,"""","""","""","""","""","""","""","""","""","""","""","""","2021-08-13 21:47:40",70.93.250.3,"Mozilla/5.0 (Windows NT 10.0; Win64; x64; rv:91.0) Gecko/20100101 Firefox/91.0",,Firefox,91.0,Windows,10.0,5f461dd6c139dd6b46c7596cbd57cd79
209,1,"""","""","""","""","""",sampler,274,67424,0.0-6.0-268.0,"""","""","""","""","""","""","""","""","""","""","""","""","2021-08-13 21:47:40",70.93.250.3,"Mozilla/5.0 (Windows NT 10.0; Win64; x64; rv:91.0) Gecko/20100101 Firefox/91.0",,Firefox,91.0,Windows,10.0,5f461dd6c139dd6b46c7596cbd57cd79
209,1,"""","""","""","""","""",sampler,275,67424,0.0-6.0-269.0,"""","""","""","""","""","""","""","""","""","""","""","""","2021-08-13 21:47:40",70.93.250.3,"Mozilla/5.0 (Windows NT 10.0; Win64; x64; rv:91.0) Gecko/20100101 Firefox/91.0",,Firefox,91.0,Windows,10.0,5f461dd6c139dd6b46c7596cbd57cd79
209,1,"""","""","""","""","""",sampler,276,67424,0.0-6.0-270.0,"""","""","""","""","""","""","""","""","""","""","""","""","2021-08-13 21:47:40",70.93.250.3,"Mozilla/5.0 (Windows NT 10.0; Win64; x64; rv:91.0) Gecko/20100101 Firefox/91.0",,Firefox,91.0,Windows,10.0,5f461dd6c139dd6b46c7596cbd57cd79
209,1,"""","""","""","""","""",sampler,277,67424,0.0-6.0-271.0,"""","""","""","""","""","""","""","""","""","""","""","""","2021-08-13 21:47:40",70.93.250.3,"Mozilla/5.0 (Windows NT 10.0; Win64; x64; rv:91.0) Gecko/20100101 Firefox/91.0",,Firefox,91.0,Windows,10.0,5f461dd6c139dd6b46c7596cbd57cd79
209,1,"""","""","""","""","""",sampler,278,67424,0.0-6.0-272.0,"""","""","""","""","""","""","""","""","""","""","""","""","2021-08-13 21:47:40",70.93.250.3,"Mozilla/5.0 (Windows NT 10.0; Win64; x64; rv:91.0) Gecko/20100101 Firefox/91.0",,Firefox,91.0,Windows,10.0,5f461dd6c139dd6b46c7596cbd57cd79
209,1,"""","""","""","""","""",sampler,279,67425,0.0-6.0-273.0,"""","""","""","""","""","""","""","""","""","""","""","""","2021-08-13 21:47:40",70.93.250.3,"Mozilla/5.0 (Windows NT 10.0; Win64; x64; rv:91.0) Gecko/20100101 Firefox/91.0",,Firefox,91.0,Windows,10.0,5f461dd6c139dd6b46c7596cbd57cd79
209,1,"""","""","""","""","""",sampler,280,67425,0.0-6.0-274.0,"""","""","""","""","""","""","""","""","""","""","""","""","2021-08-13 21:47:40",70.93.250.3,"Mozilla/5.0 (Windows NT 10.0; Win64; x64; rv:91.0) Gecko/20100101 Firefox/91.0",,Firefox,91.0,Windows,10.0,5f461dd6c139dd6b46c7596cbd57cd79
209,1,"""","""","""","""","""",sampler,281,67425,0.0-6.0-275.0,"""","""","""","""","""","""","""","""","""","""","""","""","2021-08-13 21:47:40",70.93.250.3,"Mozilla/5.0 (Windows NT 10.0; Win64; x64; rv:91.0) Gecko/20100101 Firefox/91.0",,Firefox,91.0,Windows,10.0,5f461dd6c139dd6b46c7596cbd57cd79
209,1,"""","""","""","""","""",sampler,282,67425,0.0-6.0-276.0,"""","""","""","""","""","""","""","""","""","""","""","""","2021-08-13 21:47:40",70.93.250.3,"Mozilla/5.0 (Windows NT 10.0; Win64; x64; rv:91.0) Gecko/20100101 Firefox/91.0",,Firefox,91.0,Windows,10.0,5f461dd6c139dd6b46c7596cbd57cd79
209,1,"""","""","""","""","""",sampler,283,67425,0.0-6.0-277.0,"""","""","""","""","""","""","""","""","""","""","""","""","2021-08-13 21:47:40",70.93.250.3,"Mozilla/5.0 (Windows NT 10.0; Win64; x64; rv:91.0) Gecko/20100101 Firefox/91.0",,Firefox,91.0,Windows,10.0,5f461dd6c139dd6b46c7596cbd57cd79
209,1,"""","""","""","""","""",sampler,284,67425,0.0-6.0-278.0,"""","""","""","""","""","""","""","""","""","""","""","""","2021-08-13 21:47:40",70.93.250.3,"Mozilla/5.0 (Windows NT 10.0; Win64; x64; rv:91.0) Gecko/20100101 Firefox/91.0",,Firefox,91.0,Windows,10.0,5f461dd6c139dd6b46c7596cbd57cd79
209,1,"""","""","""","""","""",sampler,285,67426,0.0-6.0-279.0,"""","""","""","""","""","""","""","""","""","""","""","""","2021-08-13 21:47:40",70.93.250.3,"Mozilla/5.0 (Windows NT 10.0; Win64; x64; rv:91.0) Gecko/20100101 Firefox/91.0",,Firefox,91.0,Windows,10.0,5f461dd6c139dd6b46c7596cbd57cd79
209,1,"""","""","""","""","""",sampler,286,67426,0.0-6.0-280.0,"""","""","""","""","""","""","""","""","""","""","""","""","2021-08-13 21:47:40",70.93.250.3,"Mozilla/5.0 (Windows NT 10.0; Win64; x64; rv:91.0) Gecko/20100101 Firefox/91.0",,Firefox,91.0,Windows,10.0,5f461dd6c139dd6b46c7596cbd57cd79
209,1,"""","""","""","""","""",sampler,287,67426,0.0-6.0-281.0,"""","""","""","""","""","""","""","""","""","""","""","""","2021-08-13 21:47:40",70.93.250.3,"Mozilla/5.0 (Windows NT 10.0; Win64; x64; rv:91.0) Gecko/20100101 Firefox/91.0",,Firefox,91.0,Windows,10.0,5f461dd6c139dd6b46c7596cbd57cd79
209,1,"""","""","""","""","""",sampler,288,67426,0.0-6.0-282.0,"""","""","""","""","""","""","""","""","""","""","""","""","2021-08-13 21:47:40",70.93.250.3,"Mozilla/5.0 (Windows NT 10.0; Win64; x64; rv:91.0) Gecko/20100101 Firefox/91.0",,Firefox,91.0,Windows,10.0,5f461dd6c139dd6b46c7596cbd57cd79
209,1,"""","""","""","""","""",sampler,289,67426,0.0-6.0-283.0,"""","""","""","""","""","""","""","""","""","""","""","""","2021-08-13 21:47:40",70.93.250.3,"Mozilla/5.0 (Windows NT 10.0; Win64; x64; rv:91.0) Gecko/20100101 Firefox/91.0",,Firefox,91.0,Windows,10.0,5f461dd6c139dd6b46c7596cbd57cd79
209,1,"""","""","""","""","""",sampler,290,67427,0.0-6.0-284.0,"""","""","""","""","""","""","""","""","""","""","""","""","2021-08-13 21:47:40",70.93.250.3,"Mozilla/5.0 (Windows NT 10.0; Win64; x64; rv:91.0) Gecko/20100101 Firefox/91.0",,Firefox,91.0,Windows,10.0,5f461dd6c139dd6b46c7596cbd57cd79
209,1,"""","""","""","""","""",sampler,291,67427,0.0-6.0-285.0,"""","""","""","""","""","""","""","""","""","""","""","""","2021-08-13 21:47:40",70.93.250.3,"Mozilla/5.0 (Windows NT 10.0; Win64; x64; rv:91.0) Gecko/20100101 Firefox/91.0",,Firefox,91.0,Windows,10.0,5f461dd6c139dd6b46c7596cbd57cd79
209,1,"""","""","""","""","""",sampler,292,67427,0.0-6.0-286.0,"""","""","""","""","""","""","""","""","""","""","""","""","2021-08-13 21:47:40",70.93.250.3,"Mozilla/5.0 (Windows NT 10.0; Win64; x64; rv:91.0) Gecko/20100101 Firefox/91.0",,Firefox,91.0,Windows,10.0,5f461dd6c139dd6b46c7596cbd57cd79
209,1,"""","""","""","""","""",sampler,293,67427,0.0-6.0-287.0,"""","""","""","""","""","""","""","""","""","""","""","""","2021-08-13 21:47:40",70.93.250.3,"Mozilla/5.0 (Windows NT 10.0; Win64; x64; rv:91.0) Gecko/20100101 Firefox/91.0",,Firefox,91.0,Windows,10.0,5f461dd6c139dd6b46c7596cbd57cd79
209,1,"""","""","""","""","""",sampler,294,67427,0.0-6.0-288.0,"""","""","""","""","""","""","""","""","""","""","""","""","2021-08-13 21:47:40",70.93.250.3,"Mozilla/5.0 (Windows NT 10.0; Win64; x64; rv:91.0) Gecko/20100101 Firefox/91.0",,Firefox,91.0,Windows,10.0,5f461dd6c139dd6b46c7596cbd57cd79
209,1,"""","""","""","""","""",sampler,295,67427,0.0-6.0-289.0,"""","""","""","""","""","""","""","""","""","""","""","""","2021-08-13 21:47:40",70.93.250.3,"Mozilla/5.0 (Windows NT 10.0; Win64; x64; rv:91.0) Gecko/20100101 Firefox/91.0",,Firefox,91.0,Windows,10.0,5f461dd6c139dd6b46c7596cbd57cd79
209,1,"""","""","""","""","""",sampler,296,67427,0.0-6.0-290.0,"""","""","""","""","""","""","""","""","""","""","""","""","2021-08-13 21:47:40",70.93.250.3,"Mozilla/5.0 (Windows NT 10.0; Win64; x64; rv:91.0) Gecko/20100101 Firefox/91.0",,Firefox,91.0,Windows,10.0,5f461dd6c139dd6b46c7596cbd57cd79
209,1,"""","""","""","""","""",sampler,297,67427,0.0-6.0-291.0,"""","""","""","""","""","""","""","""","""","""","""","""","2021-08-13 21:47:40",70.93.250.3,"Mozilla/5.0 (Windows NT 10.0; Win64; x64; rv:91.0) Gecko/20100101 Firefox/91.0",,Firefox,91.0,Windows,10.0,5f461dd6c139dd6b46c7596cbd57cd79
209,1,"""","""","""","""","""",sampler,298,67428,0.0-6.0-292.0,"""","""","""","""","""","""","""","""","""","""","""","""","2021-08-13 21:47:40",70.93.250.3,"Mozilla/5.0 (Windows NT 10.0; Win64; x64; rv:91.0) Gecko/20100101 Firefox/91.0",,Firefox,91.0,Windows,10.0,5f461dd6c139dd6b46c7596cbd57cd79
209,1,"""","""","""","""","""",sampler,299,67428,0.0-6.0-293.0,"""","""","""","""","""","""","""","""","""","""","""","""","2021-08-13 21:47:40",70.93.250.3,"Mozilla/5.0 (Windows NT 10.0; Win64; x64; rv:91.0) Gecko/20100101 Firefox/91.0",,Firefox,91.0,Windows,10.0,5f461dd6c139dd6b46c7596cbd57cd79
209,1,"""","""","""","""","""",sampler,300,67429,0.0-6.0-294.0,"""","""","""","""","""","""","""","""","""","""","""","""","2021-08-13 21:47:40",70.93.250.3,"Mozilla/5.0 (Windows NT 10.0; Win64; x64; rv:91.0) Gecko/20100101 Firefox/91.0",,Firefox,91.0,Windows,10.0,5f461dd6c139dd6b46c7596cbd57cd79
209,1,"""","""","""","""","""",sampler,301,67429,0.0-6.0-295.0,"""","""","""","""","""","""","""","""","""","""","""","""","2021-08-13 21:47:40",70.93.250.3,"Mozilla/5.0 (Windows NT 10.0; Win64; x64; rv:91.0) Gecko/20100101 Firefox/91.0",,Firefox,91.0,Windows,10.0,5f461dd6c139dd6b46c7596cbd57cd79
209,1,"""","""","""","""","""",sampler,302,67429,0.0-6.0-296.0,"""","""","""","""","""","""","""","""","""","""","""","""","2021-08-13 21:47:40",70.93.250.3,"Mozilla/5.0 (Windows NT 10.0; Win64; x64; rv:91.0) Gecko/20100101 Firefox/91.0",,Firefox,91.0,Windows,10.0,5f461dd6c139dd6b46c7596cbd57cd79
209,1,"""","""","""","""","""",sampler,303,67429,0.0-6.0-297.0,"""","""","""","""","""","""","""","""","""","""","""","""","2021-08-13 21:47:40",70.93.250.3,"Mozilla/5.0 (Windows NT 10.0; Win64; x64; rv:91.0) Gecko/20100101 Firefox/91.0",,Firefox,91.0,Windows,10.0,5f461dd6c139dd6b46c7596cbd57cd79
209,1,"""","""","""","""","""",sampler,304,67429,0.0-6.0-298.0,"""","""","""","""","""","""","""","""","""","""","""","""","2021-08-13 21:47:40",70.93.250.3,"Mozilla/5.0 (Windows NT 10.0; Win64; x64; rv:91.0) Gecko/20100101 Firefox/91.0",,Firefox,91.0,Windows,10.0,5f461dd6c139dd6b46c7596cbd57cd79
209,1,"""","""","""","""","""",sampler,305,67429,0.0-6.0-299.0,"""","""","""","""","""","""","""","""","""","""","""","""","2021-08-13 21:47:40",70.93.250.3,"Mozilla/5.0 (Windows NT 10.0; Win64; x64; rv:91.0) Gecko/20100101 Firefox/91.0",,Firefox,91.0,Windows,10.0,5f461dd6c139dd6b46c7596cbd57cd79
209,1,"""","""","""","""","""",sampler,306,67430,0.0-6.0-300.0,"""","""","""","""","""","""","""","""","""","""","""","""","2021-08-13 21:47:40",70.93.250.3,"Mozilla/5.0 (Windows NT 10.0; Win64; x64; rv:91.0) Gecko/20100101 Firefox/91.0",,Firefox,91.0,Windows,10.0,5f461dd6c139dd6b46c7596cbd57cd79
209,1,"""","""","""","""","""",sampler,307,67430,0.0-6.0-301.0,"""","""","""","""","""","""","""","""","""","""","""","""","2021-08-13 21:47:40",70.93.250.3,"Mozilla/5.0 (Windows NT 10.0; Win64; x64; rv:91.0) Gecko/20100101 Firefox/91.0",,Firefox,91.0,Windows,10.0,5f461dd6c139dd6b46c7596cbd57cd79
209,1,"""","""","""","""","""",sampler,308,67430,0.0-6.0-302.0,"""","""","""","""","""","""","""","""","""","""","""","""","2021-08-13 21:47:40",70.93.250.3,"Mozilla/5.0 (Windows NT 10.0; Win64; x64; rv:91.0) Gecko/20100101 Firefox/91.0",,Firefox,91.0,Windows,10.0,5f461dd6c139dd6b46c7596cbd57cd79
209,1,"""","""","""","""","""",sampler,309,67430,0.0-6.0-303.0,"""","""","""","""","""","""","""","""","""","""","""","""","2021-08-13 21:47:40",70.93.250.3,"Mozilla/5.0 (Windows NT 10.0; Win64; x64; rv:91.0) Gecko/20100101 Firefox/91.0",,Firefox,91.0,Windows,10.0,5f461dd6c139dd6b46c7596cbd57cd79
209,1,"""","""","""","""","""",sampler,310,67430,0.0-6.0-304.0,"""","""","""","""","""","""","""","""","""","""","""","""","2021-08-13 21:47:40",70.93.250.3,"Mozilla/5.0 (Windows NT 10.0; Win64; x64; rv:91.0) Gecko/20100101 Firefox/91.0",,Firefox,91.0,Windows,10.0,5f461dd6c139dd6b46c7596cbd57cd79
209,1,"""","""","""","""","""",sampler,311,67430,0.0-6.0-305.0,"""","""","""","""","""","""","""","""","""","""","""","""","2021-08-13 21:47:40",70.93.250.3,"Mozilla/5.0 (Windows NT 10.0; Win64; x64; rv:91.0) Gecko/20100101 Firefox/91.0",,Firefox,91.0,Windows,10.0,5f461dd6c139dd6b46c7596cbd57cd79
209,1,"""","""","""","""","""",sampler,312,67430,0.0-6.0-306.0,"""","""","""","""","""","""","""","""","""","""","""","""","2021-08-13 21:47:40",70.93.250.3,"Mozilla/5.0 (Windows NT 10.0; Win64; x64; rv:91.0) Gecko/20100101 Firefox/91.0",,Firefox,91.0,Windows,10.0,5f461dd6c139dd6b46c7596cbd57cd79
209,1,"""","""","""","""","""",sampler,313,67431,0.0-6.0-307.0,"""","""","""","""","""","""","""","""","""","""","""","""","2021-08-13 21:47:40",70.93.250.3,"Mozilla/5.0 (Windows NT 10.0; Win64; x64; rv:91.0) Gecko/20100101 Firefox/91.0",,Firefox,91.0,Windows,10.0,5f461dd6c139dd6b46c7596cbd57cd79
209,1,"""","""","""","""","""",sampler,314,67431,0.0-6.0-308.0,"""","""","""","""","""","""","""","""","""","""","""","""","2021-08-13 21:47:40",70.93.250.3,"Mozilla/5.0 (Windows NT 10.0; Win64; x64; rv:91.0) Gecko/20100101 Firefox/91.0",,Firefox,91.0,Windows,10.0,5f461dd6c139dd6b46c7596cbd57cd79
209,1,"""","""","""","""","""",sampler,315,67431,0.0-6.0-309.0,"""","""","""","""","""","""","""","""","""","""","""","""","2021-08-13 21:47:40",70.93.250.3,"Mozilla/5.0 (Windows NT 10.0; Win64; x64; rv:91.0) Gecko/20100101 Firefox/91.0",,Firefox,91.0,Windows,10.0,5f461dd6c139dd6b46c7596cbd57cd79
209,1,"""","""","""","""","""",sampler,316,67431,0.0-6.0-310.0,"""","""","""","""","""","""","""","""","""","""","""","""","2021-08-13 21:47:40",70.93.250.3,"Mozilla/5.0 (Windows NT 10.0; Win64; x64; rv:91.0) Gecko/20100101 Firefox/91.0",,Firefox,91.0,Windows,10.0,5f461dd6c139dd6b46c7596cbd57cd79
209,1,"""","""","""","""","""",sampler,317,67431,0.0-6.0-311.0,"""","""","""","""","""","""","""","""","""","""","""","""","2021-08-13 21:47:40",70.93.250.3,"Mozilla/5.0 (Windows NT 10.0; Win64; x64; rv:91.0) Gecko/20100101 Firefox/91.0",,Firefox,91.0,Windows,10.0,5f461dd6c139dd6b46c7596cbd57cd79
209,1,"""","""","""","""","""",sampler,318,67431,0.0-6.0-312.0,"""","""","""","""","""","""","""","""","""","""","""","""","2021-08-13 21:47:40",70.93.250.3,"Mozilla/5.0 (Windows NT 10.0; Win64; x64; rv:91.0) Gecko/20100101 Firefox/91.0",,Firefox,91.0,Windows,10.0,5f461dd6c139dd6b46c7596cbd57cd79
209,1,"""","""","""","""","""",sampler,319,67432,0.0-6.0-313.0,"""","""","""","""","""","""","""","""","""","""","""","""","2021-08-13 21:47:40",70.93.250.3,"Mozilla/5.0 (Windows NT 10.0; Win64; x64; rv:91.0) Gecko/20100101 Firefox/91.0",,Firefox,91.0,Windows,10.0,5f461dd6c139dd6b46c7596cbd57cd79
209,1,"""","""","""","""","""",sampler,320,67432,0.0-6.0-314.0,"""","""","""","""","""","""","""","""","""","""","""","""","2021-08-13 21:47:40",70.93.250.3,"Mozilla/5.0 (Windows NT 10.0; Win64; x64; rv:91.0) Gecko/20100101 Firefox/91.0",,Firefox,91.0,Windows,10.0,5f461dd6c139dd6b46c7596cbd57cd79
209,1,"""","""","""","""","""",sampler,321,67433,0.0-6.0-315.0,"""","""","""","""","""","""","""","""","""","""","""","""","2021-08-13 21:47:40",70.93.250.3,"Mozilla/5.0 (Windows NT 10.0; Win64; x64; rv:91.0) Gecko/20100101 Firefox/91.0",,Firefox,91.0,Windows,10.0,5f461dd6c139dd6b46c7596cbd57cd79
209,1,"""","""","""","""","""",sampler,322,67433,0.0-6.0-316.0,"""","""","""","""","""","""","""","""","""","""","""","""","2021-08-13 21:47:40",70.93.250.3,"Mozilla/5.0 (Windows NT 10.0; Win64; x64; rv:91.0) Gecko/20100101 Firefox/91.0",,Firefox,91.0,Windows,10.0,5f461dd6c139dd6b46c7596cbd57cd79
209,1,"""","""","""","""","""",sampler,323,67433,0.0-6.0-317.0,"""","""","""","""","""","""","""","""","""","""","""","""","2021-08-13 21:47:40",70.93.250.3,"Mozilla/5.0 (Windows NT 10.0; Win64; x64; rv:91.0) Gecko/20100101 Firefox/91.0",,Firefox,91.0,Windows,10.0,5f461dd6c139dd6b46c7596cbd57cd79
209,1,"""","""","""","""","""",sampler,324,67433,0.0-6.0-318.0,"""","""","""","""","""","""","""","""","""","""","""","""","2021-08-13 21:47:40",70.93.250.3,"Mozilla/5.0 (Windows NT 10.0; Win64; x64; rv:91.0) Gecko/20100101 Firefox/91.0",,Firefox,91.0,Windows,10.0,5f461dd6c139dd6b46c7596cbd57cd79
209,1,"""","""","""","""","""",sampler,325,67433,0.0-6.0-319.0,"""","""","""","""","""","""","""","""","""","""","""","""","2021-08-13 21:47:40",70.93.250.3,"Mozilla/5.0 (Windows NT 10.0; Win64; x64; rv:91.0) Gecko/20100101 Firefox/91.0",,Firefox,91.0,Windows,10.0,5f461dd6c139dd6b46c7596cbd57cd79
209,1,"""","""","""","""","""",sampler,326,67433,0.0-6.0-320.0,"""","""","""","""","""","""","""","""","""","""","""","""","2021-08-13 21:47:40",70.93.250.3,"Mozilla/5.0 (Windows NT 10.0; Win64; x64; rv:91.0) Gecko/20100101 Firefox/91.0",,Firefox,91.0,Windows,10.0,5f461dd6c139dd6b46c7596cbd57cd79
209,1,"""","""","""","""","""",sampler,327,67433,0.0-6.0-321.0,"""","""","""","""","""","""","""","""","""","""","""","""","2021-08-13 21:47:40",70.93.250.3,"Mozilla/5.0 (Windows NT 10.0; Win64; x64; rv:91.0) Gecko/20100101 Firefox/91.0",,Firefox,91.0,Windows,10.0,5f461dd6c139dd6b46c7596cbd57cd79
209,1,"""","""","""","""","""",sampler,328,67434,0.0-6.0-322.0,"""","""","""","""","""","""","""","""","""","""","""","""","2021-08-13 21:47:40",70.93.250.3,"Mozilla/5.0 (Windows NT 10.0; Win64; x64; rv:91.0) Gecko/20100101 Firefox/91.0",,Firefox,91.0,Windows,10.0,5f461dd6c139dd6b46c7596cbd57cd79
209,1,"""","""","""","""","""",sampler,329,67434,0.0-6.0-323.0,"""","""","""","""","""","""","""","""","""","""","""","""","2021-08-13 21:47:40",70.93.250.3,"Mozilla/5.0 (Windows NT 10.0; Win64; x64; rv:91.0) Gecko/20100101 Firefox/91.0",,Firefox,91.0,Windows,10.0,5f461dd6c139dd6b46c7596cbd57cd79
209,1,"""","""","""","""","""",sampler,330,67434,0.0-6.0-324.0,"""","""","""","""","""","""","""","""","""","""","""","""","2021-08-13 21:47:40",70.93.250.3,"Mozilla/5.0 (Windows NT 10.0; Win64; x64; rv:91.0) Gecko/20100101 Firefox/91.0",,Firefox,91.0,Windows,10.0,5f461dd6c139dd6b46c7596cbd57cd79
209,1,"""","""","""","""","""",sampler,331,67434,0.0-6.0-325.0,"""","""","""","""","""","""","""","""","""","""","""","""","2021-08-13 21:47:40",70.93.250.3,"Mozilla/5.0 (Windows NT 10.0; Win64; x64; rv:91.0) Gecko/20100101 Firefox/91.0",,Firefox,91.0,Windows,10.0,5f461dd6c139dd6b46c7596cbd57cd79
