run_id,condition,success,timeout,failed_images,failed_audio,failed_video,trial_type,trial_index,time_elapsed,internal_node_id,rt,stimulus,key_press,responses,view_history,correct,image_click,points,sd,points2,total_earn,button_pressed,recorded_at,ip,user_agent,device,browser,browser_version,platform,platform_version,source_code_version
222,1,true,false,"""","""","""",preload,0,1838,0.0-0.0,"""","""","""","""","""","""","""","""","""","""","""","""","2021-08-17 18:03:41",189.180.109.139,"Mozilla/5.0 (Windows NT 10.0; Win64; x64) AppleWebKit/537.36 (KHTML, like Gecko) Chrome/92.0.4515.131 Safari/537.36",WebKit,Chrome,92.0.4515.131,Windows,10.0,5f461dd6c139dd6b46c7596cbd57cd79
222,1,"""","""","""","""","""",html-keyboard-response,1,4215,0.0-1.0,2362,"<font size=15>Welcome to our experiment!</font><br><br><br><i> Press <b>space bar</b> to begin.</i>",32,"""","""","""","""","""","""","""","""","""","2021-08-17 18:03:41",189.180.109.139,"Mozilla/5.0 (Windows NT 10.0; Win64; x64) AppleWebKit/537.36 (KHTML, like Gecko) Chrome/92.0.4515.131 Safari/537.36",WebKit,Chrome,92.0.4515.131,Windows,10.0,5f461dd6c139dd6b46c7596cbd57cd79
222,1,"""","""","""","""","""",survey-multi-choice,2,34072,0.0-2.0,29848,"""","""","{""Q0"":""Yes"",""Q1"":""Yes"",""Q2"":""Yes"",""Q3"":""Yes""}","""","""","""","""","""","""","""","""","2021-08-17 18:03:41",189.180.109.139,"Mozilla/5.0 (Windows NT 10.0; Win64; x64) AppleWebKit/537.36 (KHTML, like Gecko) Chrome/92.0.4515.131 Safari/537.36",WebKit,Chrome,92.0.4515.131,Windows,10.0,5f461dd6c139dd6b46c7596cbd57cd79
222,1,"""","""","""","""","""",survey-html-form,3,56568,0.0-3.0,22492.299999952316,"""","""","{""gender"":""male"",""age"":""32"",""hand"":""right"",""mail"":""603c7ab16aac09a248f51fc9""}","""","""","""","""","""","""","""","""","2021-08-17 18:03:41",189.180.109.139,"Mozilla/5.0 (Windows NT 10.0; Win64; x64) AppleWebKit/537.36 (KHTML, like Gecko) Chrome/92.0.4515.131 Safari/537.36",WebKit,Chrome,92.0.4515.131,Windows,10.0,5f461dd6c139dd6b46c7596cbd57cd79
222,1,true,"""","""","""","""",fullscreen,4,64937,0.0-4.0,"""","""","""","""","""","""","""","""","""","""","""","""","2021-08-17 18:03:41",189.180.109.139,"Mozilla/5.0 (Windows NT 10.0; Win64; x64) AppleWebKit/537.36 (KHTML, like Gecko) Chrome/92.0.4515.131 Safari/537.36",WebKit,Chrome,92.0.4515.131,Windows,10.0,5f461dd6c139dd6b46c7596cbd57cd79
222,1,"""","""","""","""","""",multikey-instructions,5,348155,0.0-5.0,283209,"""","""","""","[{""page_index"":0,""viewing_time"":74593},{""page_index"":1,""viewing_time"":25892},{""page_index"":2,""viewing_time"":32390},{""page_index"":3,""viewing_time"":13539},{""page_index"":4,""viewing_time"":10313},{""page_index"":5,""viewing_time"":18947},{""page_index"":6,""viewing_time"":11430},{""page_index"":7,""viewing_time"":19586},{""page_index"":8,""viewing_time"":31115},{""page_index"":9,""viewing_time"":19680},{""page_index"":10,""viewing_time"":19537},{""page_index"":11,""viewing_time"":6186}]","""","""","""","""","""","""","""","2021-08-17 18:03:41",189.180.109.139,"Mozilla/5.0 (Windows NT 10.0; Win64; x64) AppleWebKit/537.36 (KHTML, like Gecko) Chrome/92.0.4515.131 Safari/537.36",WebKit,Chrome,92.0.4515.131,Windows,10.0,5f461dd6c139dd6b46c7596cbd57cd79
222,1,"""","""","""","""","""",sampler,6,367770,0.0-6.0-0.0,19199,img/Cyan.png,"""","""","""",false,-1,11.137077551455057,10,"""","""","""","2021-08-17 18:03:41",189.180.109.139,"Mozilla/5.0 (Windows NT 10.0; Win64; x64) AppleWebKit/537.36 (KHTML, like Gecko) Chrome/92.0.4515.131 Safari/537.36",WebKit,Chrome,92.0.4515.131,Windows,10.0,5f461dd6c139dd6b46c7596cbd57cd79
222,1,"""","""","""","""","""",sampler,7,370231,0.0-6.0-1.0,2033,img/Cyan.png,"""","""","""",false,-1,-0.680987020766838,10,"""","""","""","2021-08-17 18:03:41",189.180.109.139,"Mozilla/5.0 (Windows NT 10.0; Win64; x64) AppleWebKit/537.36 (KHTML, like Gecko) Chrome/92.0.4515.131 Safari/537.36",WebKit,Chrome,92.0.4515.131,Windows,10.0,5f461dd6c139dd6b46c7596cbd57cd79
222,1,"""","""","""","""","""",sampler,8,373103,0.0-6.0-2.0,2461,img/Cyan.png,"""","""","""",false,-1,11.765095266961204,10,"""","""","""","2021-08-17 18:03:41",189.180.109.139,"Mozilla/5.0 (Windows NT 10.0; Win64; x64) AppleWebKit/537.36 (KHTML, like Gecko) Chrome/92.0.4515.131 Safari/537.36",WebKit,Chrome,92.0.4515.131,Windows,10.0,5f461dd6c139dd6b46c7596cbd57cd79
222,1,"""","""","""","""","""",sampler,9,376889,0.0-6.0-3.0,3375,img/Cyan.png,"""","""","""",false,-1,13.663791347516455,10,"""","""","""","2021-08-17 18:03:41",189.180.109.139,"Mozilla/5.0 (Windows NT 10.0; Win64; x64) AppleWebKit/537.36 (KHTML, like Gecko) Chrome/92.0.4515.131 Safari/537.36",WebKit,Chrome,92.0.4515.131,Windows,10.0,5f461dd6c139dd6b46c7596cbd57cd79
222,1,"""","""","""","""","""",sampler,10,376891,0.0-6.0-4.0,"""","""","""","""","""","""","""","""","""","""","""","""","2021-08-17 18:03:41",189.180.109.139,"Mozilla/5.0 (Windows NT 10.0; Win64; x64) AppleWebKit/537.36 (KHTML, like Gecko) Chrome/92.0.4515.131 Safari/537.36",WebKit,Chrome,92.0.4515.131,Windows,10.0,5f461dd6c139dd6b46c7596cbd57cd79
222,1,"""","""","""","""","""",sampler,11,376892,0.0-6.0-5.0,"""","""","""","""","""","""","""","""","""","""","""","""","2021-08-17 18:03:41",189.180.109.139,"Mozilla/5.0 (Windows NT 10.0; Win64; x64) AppleWebKit/537.36 (KHTML, like Gecko) Chrome/92.0.4515.131 Safari/537.36",WebKit,Chrome,92.0.4515.131,Windows,10.0,5f461dd6c139dd6b46c7596cbd57cd79
222,1,"""","""","""","""","""",sampler,12,376892,0.0-6.0-6.0,"""","""","""","""","""","""","""","""","""","""","""","""","2021-08-17 18:03:41",189.180.109.139,"Mozilla/5.0 (Windows NT 10.0; Win64; x64) AppleWebKit/537.36 (KHTML, like Gecko) Chrome/92.0.4515.131 Safari/537.36",WebKit,Chrome,92.0.4515.131,Windows,10.0,5f461dd6c139dd6b46c7596cbd57cd79
222,1,"""","""","""","""","""",sampler,13,376893,0.0-6.0-7.0,"""","""","""","""","""","""","""","""","""","""","""","""","2021-08-17 18:03:41",189.180.109.139,"Mozilla/5.0 (Windows NT 10.0; Win64; x64) AppleWebKit/537.36 (KHTML, like Gecko) Chrome/92.0.4515.131 Safari/537.36",WebKit,Chrome,92.0.4515.131,Windows,10.0,5f461dd6c139dd6b46c7596cbd57cd79
222,1,"""","""","""","""","""",sampler,14,376893,0.0-6.0-8.0,"""","""","""","""","""","""","""","""","""","""","""","""","2021-08-17 18:03:41",189.180.109.139,"Mozilla/5.0 (Windows NT 10.0; Win64; x64) AppleWebKit/537.36 (KHTML, like Gecko) Chrome/92.0.4515.131 Safari/537.36",WebKit,Chrome,92.0.4515.131,Windows,10.0,5f461dd6c139dd6b46c7596cbd57cd79
222,1,"""","""","""","""","""",sampler,15,376894,0.0-6.0-9.0,"""","""","""","""","""","""","""","""","""","""","""","""","2021-08-17 18:03:41",189.180.109.139,"Mozilla/5.0 (Windows NT 10.0; Win64; x64) AppleWebKit/537.36 (KHTML, like Gecko) Chrome/92.0.4515.131 Safari/537.36",WebKit,Chrome,92.0.4515.131,Windows,10.0,5f461dd6c139dd6b46c7596cbd57cd79
222,1,"""","""","""","""","""",sampler,16,376894,0.0-6.0-10.0,"""","""","""","""","""","""","""","""","""","""","""","""","2021-08-17 18:03:41",189.180.109.139,"Mozilla/5.0 (Windows NT 10.0; Win64; x64) AppleWebKit/537.36 (KHTML, like Gecko) Chrome/92.0.4515.131 Safari/537.36",WebKit,Chrome,92.0.4515.131,Windows,10.0,5f461dd6c139dd6b46c7596cbd57cd79
222,1,"""","""","""","""","""",sampler,17,376895,0.0-6.0-11.0,"""","""","""","""","""","""","""","""","""","""","""","""","2021-08-17 18:03:41",189.180.109.139,"Mozilla/5.0 (Windows NT 10.0; Win64; x64) AppleWebKit/537.36 (KHTML, like Gecko) Chrome/92.0.4515.131 Safari/537.36",WebKit,Chrome,92.0.4515.131,Windows,10.0,5f461dd6c139dd6b46c7596cbd57cd79
222,1,"""","""","""","""","""",sampler,18,376895,0.0-6.0-12.0,"""","""","""","""","""","""","""","""","""","""","""","""","2021-08-17 18:03:41",189.180.109.139,"Mozilla/5.0 (Windows NT 10.0; Win64; x64) AppleWebKit/537.36 (KHTML, like Gecko) Chrome/92.0.4515.131 Safari/537.36",WebKit,Chrome,92.0.4515.131,Windows,10.0,5f461dd6c139dd6b46c7596cbd57cd79
222,1,"""","""","""","""","""",sampler,19,376896,0.0-6.0-13.0,"""","""","""","""","""","""","""","""","""","""","""","""","2021-08-17 18:03:41",189.180.109.139,"Mozilla/5.0 (Windows NT 10.0; Win64; x64) AppleWebKit/537.36 (KHTML, like Gecko) Chrome/92.0.4515.131 Safari/537.36",WebKit,Chrome,92.0.4515.131,Windows,10.0,5f461dd6c139dd6b46c7596cbd57cd79
222,1,"""","""","""","""","""",sampler,20,376896,0.0-6.0-14.0,"""","""","""","""","""","""","""","""","""","""","""","""","2021-08-17 18:03:41",189.180.109.139,"Mozilla/5.0 (Windows NT 10.0; Win64; x64) AppleWebKit/537.36 (KHTML, like Gecko) Chrome/92.0.4515.131 Safari/537.36",WebKit,Chrome,92.0.4515.131,Windows,10.0,5f461dd6c139dd6b46c7596cbd57cd79
222,1,"""","""","""","""","""",sampler,21,376897,0.0-6.0-15.0,"""","""","""","""","""","""","""","""","""","""","""","""","2021-08-17 18:03:41",189.180.109.139,"Mozilla/5.0 (Windows NT 10.0; Win64; x64) AppleWebKit/537.36 (KHTML, like Gecko) Chrome/92.0.4515.131 Safari/537.36",WebKit,Chrome,92.0.4515.131,Windows,10.0,5f461dd6c139dd6b46c7596cbd57cd79
222,1,"""","""","""","""","""",sampler,22,376897,0.0-6.0-16.0,"""","""","""","""","""","""","""","""","""","""","""","""","2021-08-17 18:03:41",189.180.109.139,"Mozilla/5.0 (Windows NT 10.0; Win64; x64) AppleWebKit/537.36 (KHTML, like Gecko) Chrome/92.0.4515.131 Safari/537.36",WebKit,Chrome,92.0.4515.131,Windows,10.0,5f461dd6c139dd6b46c7596cbd57cd79
222,1,"""","""","""","""","""",sampler,23,376898,0.0-6.0-17.0,"""","""","""","""","""","""","""","""","""","""","""","""","2021-08-17 18:03:41",189.180.109.139,"Mozilla/5.0 (Windows NT 10.0; Win64; x64) AppleWebKit/537.36 (KHTML, like Gecko) Chrome/92.0.4515.131 Safari/537.36",WebKit,Chrome,92.0.4515.131,Windows,10.0,5f461dd6c139dd6b46c7596cbd57cd79
222,1,"""","""","""","""","""",sampler,24,376898,0.0-6.0-18.0,"""","""","""","""","""","""","""","""","""","""","""","""","2021-08-17 18:03:41",189.180.109.139,"Mozilla/5.0 (Windows NT 10.0; Win64; x64) AppleWebKit/537.36 (KHTML, like Gecko) Chrome/92.0.4515.131 Safari/537.36",WebKit,Chrome,92.0.4515.131,Windows,10.0,5f461dd6c139dd6b46c7596cbd57cd79
222,1,"""","""","""","""","""",sampler,25,376898,0.0-6.0-19.0,"""","""","""","""","""","""","""","""","""","""","""","""","2021-08-17 18:03:41",189.180.109.139,"Mozilla/5.0 (Windows NT 10.0; Win64; x64) AppleWebKit/537.36 (KHTML, like Gecko) Chrome/92.0.4515.131 Safari/537.36",WebKit,Chrome,92.0.4515.131,Windows,10.0,5f461dd6c139dd6b46c7596cbd57cd79
222,1,"""","""","""","""","""",sampler,26,376899,0.0-6.0-20.0,"""","""","""","""","""","""","""","""","""","""","""","""","2021-08-17 18:03:41",189.180.109.139,"Mozilla/5.0 (Windows NT 10.0; Win64; x64) AppleWebKit/537.36 (KHTML, like Gecko) Chrome/92.0.4515.131 Safari/537.36",WebKit,Chrome,92.0.4515.131,Windows,10.0,5f461dd6c139dd6b46c7596cbd57cd79
222,1,"""","""","""","""","""",sampler,27,376899,0.0-6.0-21.0,"""","""","""","""","""","""","""","""","""","""","""","""","2021-08-17 18:03:41",189.180.109.139,"Mozilla/5.0 (Windows NT 10.0; Win64; x64) AppleWebKit/537.36 (KHTML, like Gecko) Chrome/92.0.4515.131 Safari/537.36",WebKit,Chrome,92.0.4515.131,Windows,10.0,5f461dd6c139dd6b46c7596cbd57cd79
222,1,"""","""","""","""","""",sampler,28,376900,0.0-6.0-22.0,"""","""","""","""","""","""","""","""","""","""","""","""","2021-08-17 18:03:41",189.180.109.139,"Mozilla/5.0 (Windows NT 10.0; Win64; x64) AppleWebKit/537.36 (KHTML, like Gecko) Chrome/92.0.4515.131 Safari/537.36",WebKit,Chrome,92.0.4515.131,Windows,10.0,5f461dd6c139dd6b46c7596cbd57cd79
222,1,"""","""","""","""","""",sampler,29,376900,0.0-6.0-23.0,"""","""","""","""","""","""","""","""","""","""","""","""","2021-08-17 18:03:41",189.180.109.139,"Mozilla/5.0 (Windows NT 10.0; Win64; x64) AppleWebKit/537.36 (KHTML, like Gecko) Chrome/92.0.4515.131 Safari/537.36",WebKit,Chrome,92.0.4515.131,Windows,10.0,5f461dd6c139dd6b46c7596cbd57cd79
222,1,"""","""","""","""","""",sampler,30,376901,0.0-6.0-24.0,"""","""","""","""","""","""","""","""","""","""","""","""","2021-08-17 18:03:41",189.180.109.139,"Mozilla/5.0 (Windows NT 10.0; Win64; x64) AppleWebKit/537.36 (KHTML, like Gecko) Chrome/92.0.4515.131 Safari/537.36",WebKit,Chrome,92.0.4515.131,Windows,10.0,5f461dd6c139dd6b46c7596cbd57cd79
222,1,"""","""","""","""","""",sampler,31,376901,0.0-6.0-25.0,"""","""","""","""","""","""","""","""","""","""","""","""","2021-08-17 18:03:41",189.180.109.139,"Mozilla/5.0 (Windows NT 10.0; Win64; x64) AppleWebKit/537.36 (KHTML, like Gecko) Chrome/92.0.4515.131 Safari/537.36",WebKit,Chrome,92.0.4515.131,Windows,10.0,5f461dd6c139dd6b46c7596cbd57cd79
222,1,"""","""","""","""","""",sampler,32,376901,0.0-6.0-26.0,"""","""","""","""","""","""","""","""","""","""","""","""","2021-08-17 18:03:41",189.180.109.139,"Mozilla/5.0 (Windows NT 10.0; Win64; x64) AppleWebKit/537.36 (KHTML, like Gecko) Chrome/92.0.4515.131 Safari/537.36",WebKit,Chrome,92.0.4515.131,Windows,10.0,5f461dd6c139dd6b46c7596cbd57cd79
222,1,"""","""","""","""","""",sampler,33,376901,0.0-6.0-27.0,"""","""","""","""","""","""","""","""","""","""","""","""","2021-08-17 18:03:41",189.180.109.139,"Mozilla/5.0 (Windows NT 10.0; Win64; x64) AppleWebKit/537.36 (KHTML, like Gecko) Chrome/92.0.4515.131 Safari/537.36",WebKit,Chrome,92.0.4515.131,Windows,10.0,5f461dd6c139dd6b46c7596cbd57cd79
222,1,"""","""","""","""","""",sampler,34,376902,0.0-6.0-28.0,"""","""","""","""","""","""","""","""","""","""","""","""","2021-08-17 18:03:41",189.180.109.139,"Mozilla/5.0 (Windows NT 10.0; Win64; x64) AppleWebKit/537.36 (KHTML, like Gecko) Chrome/92.0.4515.131 Safari/537.36",WebKit,Chrome,92.0.4515.131,Windows,10.0,5f461dd6c139dd6b46c7596cbd57cd79
222,1,"""","""","""","""","""",sampler,35,376902,0.0-6.0-29.0,"""","""","""","""","""","""","""","""","""","""","""","""","2021-08-17 18:03:41",189.180.109.139,"Mozilla/5.0 (Windows NT 10.0; Win64; x64) AppleWebKit/537.36 (KHTML, like Gecko) Chrome/92.0.4515.131 Safari/537.36",WebKit,Chrome,92.0.4515.131,Windows,10.0,5f461dd6c139dd6b46c7596cbd57cd79
222,1,"""","""","""","""","""",sampler,36,376902,0.0-6.0-30.0,"""","""","""","""","""","""","""","""","""","""","""","""","2021-08-17 18:03:41",189.180.109.139,"Mozilla/5.0 (Windows NT 10.0; Win64; x64) AppleWebKit/537.36 (KHTML, like Gecko) Chrome/92.0.4515.131 Safari/537.36",WebKit,Chrome,92.0.4515.131,Windows,10.0,5f461dd6c139dd6b46c7596cbd57cd79
222,1,"""","""","""","""","""",sampler,37,376902,0.0-6.0-31.0,"""","""","""","""","""","""","""","""","""","""","""","""","2021-08-17 18:03:41",189.180.109.139,"Mozilla/5.0 (Windows NT 10.0; Win64; x64) AppleWebKit/537.36 (KHTML, like Gecko) Chrome/92.0.4515.131 Safari/537.36",WebKit,Chrome,92.0.4515.131,Windows,10.0,5f461dd6c139dd6b46c7596cbd57cd79
222,1,"""","""","""","""","""",sampler,38,376903,0.0-6.0-32.0,"""","""","""","""","""","""","""","""","""","""","""","""","2021-08-17 18:03:41",189.180.109.139,"Mozilla/5.0 (Windows NT 10.0; Win64; x64) AppleWebKit/537.36 (KHTML, like Gecko) Chrome/92.0.4515.131 Safari/537.36",WebKit,Chrome,92.0.4515.131,Windows,10.0,5f461dd6c139dd6b46c7596cbd57cd79
222,1,"""","""","""","""","""",sampler,39,376903,0.0-6.0-33.0,"""","""","""","""","""","""","""","""","""","""","""","""","2021-08-17 18:03:41",189.180.109.139,"Mozilla/5.0 (Windows NT 10.0; Win64; x64) AppleWebKit/537.36 (KHTML, like Gecko) Chrome/92.0.4515.131 Safari/537.36",WebKit,Chrome,92.0.4515.131,Windows,10.0,5f461dd6c139dd6b46c7596cbd57cd79
222,1,"""","""","""","""","""",sampler,40,376903,0.0-6.0-34.0,"""","""","""","""","""","""","""","""","""","""","""","""","2021-08-17 18:03:41",189.180.109.139,"Mozilla/5.0 (Windows NT 10.0; Win64; x64) AppleWebKit/537.36 (KHTML, like Gecko) Chrome/92.0.4515.131 Safari/537.36",WebKit,Chrome,92.0.4515.131,Windows,10.0,5f461dd6c139dd6b46c7596cbd57cd79
222,1,"""","""","""","""","""",sampler,41,376903,0.0-6.0-35.0,"""","""","""","""","""","""","""","""","""","""","""","""","2021-08-17 18:03:41",189.180.109.139,"Mozilla/5.0 (Windows NT 10.0; Win64; x64) AppleWebKit/537.36 (KHTML, like Gecko) Chrome/92.0.4515.131 Safari/537.36",WebKit,Chrome,92.0.4515.131,Windows,10.0,5f461dd6c139dd6b46c7596cbd57cd79
222,1,"""","""","""","""","""",sampler,42,376904,0.0-6.0-36.0,"""","""","""","""","""","""","""","""","""","""","""","""","2021-08-17 18:03:41",189.180.109.139,"Mozilla/5.0 (Windows NT 10.0; Win64; x64) AppleWebKit/537.36 (KHTML, like Gecko) Chrome/92.0.4515.131 Safari/537.36",WebKit,Chrome,92.0.4515.131,Windows,10.0,5f461dd6c139dd6b46c7596cbd57cd79
222,1,"""","""","""","""","""",sampler,43,376904,0.0-6.0-37.0,"""","""","""","""","""","""","""","""","""","""","""","""","2021-08-17 18:03:41",189.180.109.139,"Mozilla/5.0 (Windows NT 10.0; Win64; x64) AppleWebKit/537.36 (KHTML, like Gecko) Chrome/92.0.4515.131 Safari/537.36",WebKit,Chrome,92.0.4515.131,Windows,10.0,5f461dd6c139dd6b46c7596cbd57cd79
222,1,"""","""","""","""","""",sampler,44,376904,0.0-6.0-38.0,"""","""","""","""","""","""","""","""","""","""","""","""","2021-08-17 18:03:41",189.180.109.139,"Mozilla/5.0 (Windows NT 10.0; Win64; x64) AppleWebKit/537.36 (KHTML, like Gecko) Chrome/92.0.4515.131 Safari/537.36",WebKit,Chrome,92.0.4515.131,Windows,10.0,5f461dd6c139dd6b46c7596cbd57cd79
222,1,"""","""","""","""","""",sampler,45,376904,0.0-6.0-39.0,"""","""","""","""","""","""","""","""","""","""","""","""","2021-08-17 18:03:41",189.180.109.139,"Mozilla/5.0 (Windows NT 10.0; Win64; x64) AppleWebKit/537.36 (KHTML, like Gecko) Chrome/92.0.4515.131 Safari/537.36",WebKit,Chrome,92.0.4515.131,Windows,10.0,5f461dd6c139dd6b46c7596cbd57cd79
222,1,"""","""","""","""","""",sampler,46,376905,0.0-6.0-40.0,"""","""","""","""","""","""","""","""","""","""","""","""","2021-08-17 18:03:41",189.180.109.139,"Mozilla/5.0 (Windows NT 10.0; Win64; x64) AppleWebKit/537.36 (KHTML, like Gecko) Chrome/92.0.4515.131 Safari/537.36",WebKit,Chrome,92.0.4515.131,Windows,10.0,5f461dd6c139dd6b46c7596cbd57cd79
222,1,"""","""","""","""","""",sampler,47,376905,0.0-6.0-41.0,"""","""","""","""","""","""","""","""","""","""","""","""","2021-08-17 18:03:41",189.180.109.139,"Mozilla/5.0 (Windows NT 10.0; Win64; x64) AppleWebKit/537.36 (KHTML, like Gecko) Chrome/92.0.4515.131 Safari/537.36",WebKit,Chrome,92.0.4515.131,Windows,10.0,5f461dd6c139dd6b46c7596cbd57cd79
222,1,"""","""","""","""","""",sampler,48,376905,0.0-6.0-42.0,"""","""","""","""","""","""","""","""","""","""","""","""","2021-08-17 18:03:41",189.180.109.139,"Mozilla/5.0 (Windows NT 10.0; Win64; x64) AppleWebKit/537.36 (KHTML, like Gecko) Chrome/92.0.4515.131 Safari/537.36",WebKit,Chrome,92.0.4515.131,Windows,10.0,5f461dd6c139dd6b46c7596cbd57cd79
222,1,"""","""","""","""","""",sampler,49,376905,0.0-6.0-43.0,"""","""","""","""","""","""","""","""","""","""","""","""","2021-08-17 18:03:41",189.180.109.139,"Mozilla/5.0 (Windows NT 10.0; Win64; x64) AppleWebKit/537.36 (KHTML, like Gecko) Chrome/92.0.4515.131 Safari/537.36",WebKit,Chrome,92.0.4515.131,Windows,10.0,5f461dd6c139dd6b46c7596cbd57cd79
222,1,"""","""","""","""","""",sampler,50,376906,0.0-6.0-44.0,"""","""","""","""","""","""","""","""","""","""","""","""","2021-08-17 18:03:41",189.180.109.139,"Mozilla/5.0 (Windows NT 10.0; Win64; x64) AppleWebKit/537.36 (KHTML, like Gecko) Chrome/92.0.4515.131 Safari/537.36",WebKit,Chrome,92.0.4515.131,Windows,10.0,5f461dd6c139dd6b46c7596cbd57cd79
222,1,"""","""","""","""","""",sampler,51,376906,0.0-6.0-45.0,"""","""","""","""","""","""","""","""","""","""","""","""","2021-08-17 18:03:41",189.180.109.139,"Mozilla/5.0 (Windows NT 10.0; Win64; x64) AppleWebKit/537.36 (KHTML, like Gecko) Chrome/92.0.4515.131 Safari/537.36",WebKit,Chrome,92.0.4515.131,Windows,10.0,5f461dd6c139dd6b46c7596cbd57cd79
222,1,"""","""","""","""","""",sampler,52,376906,0.0-6.0-46.0,"""","""","""","""","""","""","""","""","""","""","""","""","2021-08-17 18:03:41",189.180.109.139,"Mozilla/5.0 (Windows NT 10.0; Win64; x64) AppleWebKit/537.36 (KHTML, like Gecko) Chrome/92.0.4515.131 Safari/537.36",WebKit,Chrome,92.0.4515.131,Windows,10.0,5f461dd6c139dd6b46c7596cbd57cd79
222,1,"""","""","""","""","""",sampler,53,376906,0.0-6.0-47.0,"""","""","""","""","""","""","""","""","""","""","""","""","2021-08-17 18:03:41",189.180.109.139,"Mozilla/5.0 (Windows NT 10.0; Win64; x64) AppleWebKit/537.36 (KHTML, like Gecko) Chrome/92.0.4515.131 Safari/537.36",WebKit,Chrome,92.0.4515.131,Windows,10.0,5f461dd6c139dd6b46c7596cbd57cd79
222,1,"""","""","""","""","""",sampler,54,376907,0.0-6.0-48.0,"""","""","""","""","""","""","""","""","""","""","""","""","2021-08-17 18:03:41",189.180.109.139,"Mozilla/5.0 (Windows NT 10.0; Win64; x64) AppleWebKit/537.36 (KHTML, like Gecko) Chrome/92.0.4515.131 Safari/537.36",WebKit,Chrome,92.0.4515.131,Windows,10.0,5f461dd6c139dd6b46c7596cbd57cd79
222,1,"""","""","""","""","""",sampler,55,376907,0.0-6.0-49.0,"""","""","""","""","""","""","""","""","""","""","""","""","2021-08-17 18:03:41",189.180.109.139,"Mozilla/5.0 (Windows NT 10.0; Win64; x64) AppleWebKit/537.36 (KHTML, like Gecko) Chrome/92.0.4515.131 Safari/537.36",WebKit,Chrome,92.0.4515.131,Windows,10.0,5f461dd6c139dd6b46c7596cbd57cd79
222,1,"""","""","""","""","""",sampler,56,376907,0.0-6.0-50.0,"""","""","""","""","""","""","""","""","""","""","""","""","2021-08-17 18:03:41",189.180.109.139,"Mozilla/5.0 (Windows NT 10.0; Win64; x64) AppleWebKit/537.36 (KHTML, like Gecko) Chrome/92.0.4515.131 Safari/537.36",WebKit,Chrome,92.0.4515.131,Windows,10.0,5f461dd6c139dd6b46c7596cbd57cd79
222,1,"""","""","""","""","""",sampler,57,376907,0.0-6.0-51.0,"""","""","""","""","""","""","""","""","""","""","""","""","2021-08-17 18:03:41",189.180.109.139,"Mozilla/5.0 (Windows NT 10.0; Win64; x64) AppleWebKit/537.36 (KHTML, like Gecko) Chrome/92.0.4515.131 Safari/537.36",WebKit,Chrome,92.0.4515.131,Windows,10.0,5f461dd6c139dd6b46c7596cbd57cd79
222,1,"""","""","""","""","""",sampler,58,376908,0.0-6.0-52.0,"""","""","""","""","""","""","""","""","""","""","""","""","2021-08-17 18:03:41",189.180.109.139,"Mozilla/5.0 (Windows NT 10.0; Win64; x64) AppleWebKit/537.36 (KHTML, like Gecko) Chrome/92.0.4515.131 Safari/537.36",WebKit,Chrome,92.0.4515.131,Windows,10.0,5f461dd6c139dd6b46c7596cbd57cd79
222,1,"""","""","""","""","""",sampler,59,376908,0.0-6.0-53.0,"""","""","""","""","""","""","""","""","""","""","""","""","2021-08-17 18:03:41",189.180.109.139,"Mozilla/5.0 (Windows NT 10.0; Win64; x64) AppleWebKit/537.36 (KHTML, like Gecko) Chrome/92.0.4515.131 Safari/537.36",WebKit,Chrome,92.0.4515.131,Windows,10.0,5f461dd6c139dd6b46c7596cbd57cd79
222,1,"""","""","""","""","""",sampler,60,376908,0.0-6.0-54.0,"""","""","""","""","""","""","""","""","""","""","""","""","2021-08-17 18:03:41",189.180.109.139,"Mozilla/5.0 (Windows NT 10.0; Win64; x64) AppleWebKit/537.36 (KHTML, like Gecko) Chrome/92.0.4515.131 Safari/537.36",WebKit,Chrome,92.0.4515.131,Windows,10.0,5f461dd6c139dd6b46c7596cbd57cd79
222,1,"""","""","""","""","""",sampler,61,376908,0.0-6.0-55.0,"""","""","""","""","""","""","""","""","""","""","""","""","2021-08-17 18:03:41",189.180.109.139,"Mozilla/5.0 (Windows NT 10.0; Win64; x64) AppleWebKit/537.36 (KHTML, like Gecko) Chrome/92.0.4515.131 Safari/537.36",WebKit,Chrome,92.0.4515.131,Windows,10.0,5f461dd6c139dd6b46c7596cbd57cd79
222,1,"""","""","""","""","""",sampler,62,376909,0.0-6.0-56.0,"""","""","""","""","""","""","""","""","""","""","""","""","2021-08-17 18:03:41",189.180.109.139,"Mozilla/5.0 (Windows NT 10.0; Win64; x64) AppleWebKit/537.36 (KHTML, like Gecko) Chrome/92.0.4515.131 Safari/537.36",WebKit,Chrome,92.0.4515.131,Windows,10.0,5f461dd6c139dd6b46c7596cbd57cd79
222,1,"""","""","""","""","""",sampler,63,376909,0.0-6.0-57.0,"""","""","""","""","""","""","""","""","""","""","""","""","2021-08-17 18:03:41",189.180.109.139,"Mozilla/5.0 (Windows NT 10.0; Win64; x64) AppleWebKit/537.36 (KHTML, like Gecko) Chrome/92.0.4515.131 Safari/537.36",WebKit,Chrome,92.0.4515.131,Windows,10.0,5f461dd6c139dd6b46c7596cbd57cd79
222,1,"""","""","""","""","""",sampler,64,376909,0.0-6.0-58.0,"""","""","""","""","""","""","""","""","""","""","""","""","2021-08-17 18:03:41",189.180.109.139,"Mozilla/5.0 (Windows NT 10.0; Win64; x64) AppleWebKit/537.36 (KHTML, like Gecko) Chrome/92.0.4515.131 Safari/537.36",WebKit,Chrome,92.0.4515.131,Windows,10.0,5f461dd6c139dd6b46c7596cbd57cd79
222,1,"""","""","""","""","""",sampler,65,376909,0.0-6.0-59.0,"""","""","""","""","""","""","""","""","""","""","""","""","2021-08-17 18:03:41",189.180.109.139,"Mozilla/5.0 (Windows NT 10.0; Win64; x64) AppleWebKit/537.36 (KHTML, like Gecko) Chrome/92.0.4515.131 Safari/537.36",WebKit,Chrome,92.0.4515.131,Windows,10.0,5f461dd6c139dd6b46c7596cbd57cd79
222,1,"""","""","""","""","""",sampler,66,376910,0.0-6.0-60.0,"""","""","""","""","""","""","""","""","""","""","""","""","2021-08-17 18:03:41",189.180.109.139,"Mozilla/5.0 (Windows NT 10.0; Win64; x64) AppleWebKit/537.36 (KHTML, like Gecko) Chrome/92.0.4515.131 Safari/537.36",WebKit,Chrome,92.0.4515.131,Windows,10.0,5f461dd6c139dd6b46c7596cbd57cd79
222,1,"""","""","""","""","""",sampler,67,376910,0.0-6.0-61.0,"""","""","""","""","""","""","""","""","""","""","""","""","2021-08-17 18:03:41",189.180.109.139,"Mozilla/5.0 (Windows NT 10.0; Win64; x64) AppleWebKit/537.36 (KHTML, like Gecko) Chrome/92.0.4515.131 Safari/537.36",WebKit,Chrome,92.0.4515.131,Windows,10.0,5f461dd6c139dd6b46c7596cbd57cd79
222,1,"""","""","""","""","""",sampler,68,376910,0.0-6.0-62.0,"""","""","""","""","""","""","""","""","""","""","""","""","2021-08-17 18:03:41",189.180.109.139,"Mozilla/5.0 (Windows NT 10.0; Win64; x64) AppleWebKit/537.36 (KHTML, like Gecko) Chrome/92.0.4515.131 Safari/537.36",WebKit,Chrome,92.0.4515.131,Windows,10.0,5f461dd6c139dd6b46c7596cbd57cd79
222,1,"""","""","""","""","""",sampler,69,376911,0.0-6.0-63.0,"""","""","""","""","""","""","""","""","""","""","""","""","2021-08-17 18:03:41",189.180.109.139,"Mozilla/5.0 (Windows NT 10.0; Win64; x64) AppleWebKit/537.36 (KHTML, like Gecko) Chrome/92.0.4515.131 Safari/537.36",WebKit,Chrome,92.0.4515.131,Windows,10.0,5f461dd6c139dd6b46c7596cbd57cd79
222,1,"""","""","""","""","""",sampler,70,376913,0.0-6.0-64.0,"""","""","""","""","""","""","""","""","""","""","""","""","2021-08-17 18:03:41",189.180.109.139,"Mozilla/5.0 (Windows NT 10.0; Win64; x64) AppleWebKit/537.36 (KHTML, like Gecko) Chrome/92.0.4515.131 Safari/537.36",WebKit,Chrome,92.0.4515.131,Windows,10.0,5f461dd6c139dd6b46c7596cbd57cd79
222,1,"""","""","""","""","""",sampler,71,376913,0.0-6.0-65.0,"""","""","""","""","""","""","""","""","""","""","""","""","2021-08-17 18:03:41",189.180.109.139,"Mozilla/5.0 (Windows NT 10.0; Win64; x64) AppleWebKit/537.36 (KHTML, like Gecko) Chrome/92.0.4515.131 Safari/537.36",WebKit,Chrome,92.0.4515.131,Windows,10.0,5f461dd6c139dd6b46c7596cbd57cd79
222,1,"""","""","""","""","""",sampler,72,376913,0.0-6.0-66.0,"""","""","""","""","""","""","""","""","""","""","""","""","2021-08-17 18:03:41",189.180.109.139,"Mozilla/5.0 (Windows NT 10.0; Win64; x64) AppleWebKit/537.36 (KHTML, like Gecko) Chrome/92.0.4515.131 Safari/537.36",WebKit,Chrome,92.0.4515.131,Windows,10.0,5f461dd6c139dd6b46c7596cbd57cd79
222,1,"""","""","""","""","""",sampler,73,376914,0.0-6.0-67.0,"""","""","""","""","""","""","""","""","""","""","""","""","2021-08-17 18:03:41",189.180.109.139,"Mozilla/5.0 (Windows NT 10.0; Win64; x64) AppleWebKit/537.36 (KHTML, like Gecko) Chrome/92.0.4515.131 Safari/537.36",WebKit,Chrome,92.0.4515.131,Windows,10.0,5f461dd6c139dd6b46c7596cbd57cd79
222,1,"""","""","""","""","""",sampler,74,376914,0.0-6.0-68.0,"""","""","""","""","""","""","""","""","""","""","""","""","2021-08-17 18:03:41",189.180.109.139,"Mozilla/5.0 (Windows NT 10.0; Win64; x64) AppleWebKit/537.36 (KHTML, like Gecko) Chrome/92.0.4515.131 Safari/537.36",WebKit,Chrome,92.0.4515.131,Windows,10.0,5f461dd6c139dd6b46c7596cbd57cd79
222,1,"""","""","""","""","""",sampler,75,376914,0.0-6.0-69.0,"""","""","""","""","""","""","""","""","""","""","""","""","2021-08-17 18:03:41",189.180.109.139,"Mozilla/5.0 (Windows NT 10.0; Win64; x64) AppleWebKit/537.36 (KHTML, like Gecko) Chrome/92.0.4515.131 Safari/537.36",WebKit,Chrome,92.0.4515.131,Windows,10.0,5f461dd6c139dd6b46c7596cbd57cd79
222,1,"""","""","""","""","""",sampler,76,376915,0.0-6.0-70.0,"""","""","""","""","""","""","""","""","""","""","""","""","2021-08-17 18:03:41",189.180.109.139,"Mozilla/5.0 (Windows NT 10.0; Win64; x64) AppleWebKit/537.36 (KHTML, like Gecko) Chrome/92.0.4515.131 Safari/537.36",WebKit,Chrome,92.0.4515.131,Windows,10.0,5f461dd6c139dd6b46c7596cbd57cd79
222,1,"""","""","""","""","""",sampler,77,376915,0.0-6.0-71.0,"""","""","""","""","""","""","""","""","""","""","""","""","2021-08-17 18:03:41",189.180.109.139,"Mozilla/5.0 (Windows NT 10.0; Win64; x64) AppleWebKit/537.36 (KHTML, like Gecko) Chrome/92.0.4515.131 Safari/537.36",WebKit,Chrome,92.0.4515.131,Windows,10.0,5f461dd6c139dd6b46c7596cbd57cd79
222,1,"""","""","""","""","""",sampler,78,376915,0.0-6.0-72.0,"""","""","""","""","""","""","""","""","""","""","""","""","2021-08-17 18:03:41",189.180.109.139,"Mozilla/5.0 (Windows NT 10.0; Win64; x64) AppleWebKit/537.36 (KHTML, like Gecko) Chrome/92.0.4515.131 Safari/537.36",WebKit,Chrome,92.0.4515.131,Windows,10.0,5f461dd6c139dd6b46c7596cbd57cd79
222,1,"""","""","""","""","""",sampler,79,376915,0.0-6.0-73.0,"""","""","""","""","""","""","""","""","""","""","""","""","2021-08-17 18:03:41",189.180.109.139,"Mozilla/5.0 (Windows NT 10.0; Win64; x64) AppleWebKit/537.36 (KHTML, like Gecko) Chrome/92.0.4515.131 Safari/537.36",WebKit,Chrome,92.0.4515.131,Windows,10.0,5f461dd6c139dd6b46c7596cbd57cd79
222,1,"""","""","""","""","""",sampler,80,376916,0.0-6.0-74.0,"""","""","""","""","""","""","""","""","""","""","""","""","2021-08-17 18:03:41",189.180.109.139,"Mozilla/5.0 (Windows NT 10.0; Win64; x64) AppleWebKit/537.36 (KHTML, like Gecko) Chrome/92.0.4515.131 Safari/537.36",WebKit,Chrome,92.0.4515.131,Windows,10.0,5f461dd6c139dd6b46c7596cbd57cd79
222,1,"""","""","""","""","""",sampler,81,376916,0.0-6.0-75.0,"""","""","""","""","""","""","""","""","""","""","""","""","2021-08-17 18:03:41",189.180.109.139,"Mozilla/5.0 (Windows NT 10.0; Win64; x64) AppleWebKit/537.36 (KHTML, like Gecko) Chrome/92.0.4515.131 Safari/537.36",WebKit,Chrome,92.0.4515.131,Windows,10.0,5f461dd6c139dd6b46c7596cbd57cd79
222,1,"""","""","""","""","""",sampler,82,376916,0.0-6.0-76.0,"""","""","""","""","""","""","""","""","""","""","""","""","2021-08-17 18:03:41",189.180.109.139,"Mozilla/5.0 (Windows NT 10.0; Win64; x64) AppleWebKit/537.36 (KHTML, like Gecko) Chrome/92.0.4515.131 Safari/537.36",WebKit,Chrome,92.0.4515.131,Windows,10.0,5f461dd6c139dd6b46c7596cbd57cd79
222,1,"""","""","""","""","""",sampler,83,376917,0.0-6.0-77.0,"""","""","""","""","""","""","""","""","""","""","""","""","2021-08-17 18:03:41",189.180.109.139,"Mozilla/5.0 (Windows NT 10.0; Win64; x64) AppleWebKit/537.36 (KHTML, like Gecko) Chrome/92.0.4515.131 Safari/537.36",WebKit,Chrome,92.0.4515.131,Windows,10.0,5f461dd6c139dd6b46c7596cbd57cd79
222,1,"""","""","""","""","""",sampler,84,376918,0.0-6.0-78.0,"""","""","""","""","""","""","""","""","""","""","""","""","2021-08-17 18:03:41",189.180.109.139,"Mozilla/5.0 (Windows NT 10.0; Win64; x64) AppleWebKit/537.36 (KHTML, like Gecko) Chrome/92.0.4515.131 Safari/537.36",WebKit,Chrome,92.0.4515.131,Windows,10.0,5f461dd6c139dd6b46c7596cbd57cd79
222,1,"""","""","""","""","""",sampler,85,376919,0.0-6.0-79.0,"""","""","""","""","""","""","""","""","""","""","""","""","2021-08-17 18:03:41",189.180.109.139,"Mozilla/5.0 (Windows NT 10.0; Win64; x64) AppleWebKit/537.36 (KHTML, like Gecko) Chrome/92.0.4515.131 Safari/537.36",WebKit,Chrome,92.0.4515.131,Windows,10.0,5f461dd6c139dd6b46c7596cbd57cd79
222,1,"""","""","""","""","""",sampler,86,376919,0.0-6.0-80.0,"""","""","""","""","""","""","""","""","""","""","""","""","2021-08-17 18:03:41",189.180.109.139,"Mozilla/5.0 (Windows NT 10.0; Win64; x64) AppleWebKit/537.36 (KHTML, like Gecko) Chrome/92.0.4515.131 Safari/537.36",WebKit,Chrome,92.0.4515.131,Windows,10.0,5f461dd6c139dd6b46c7596cbd57cd79
222,1,"""","""","""","""","""",sampler,87,376919,0.0-6.0-81.0,"""","""","""","""","""","""","""","""","""","""","""","""","2021-08-17 18:03:41",189.180.109.139,"Mozilla/5.0 (Windows NT 10.0; Win64; x64) AppleWebKit/537.36 (KHTML, like Gecko) Chrome/92.0.4515.131 Safari/537.36",WebKit,Chrome,92.0.4515.131,Windows,10.0,5f461dd6c139dd6b46c7596cbd57cd79
222,1,"""","""","""","""","""",sampler,88,376920,0.0-6.0-82.0,"""","""","""","""","""","""","""","""","""","""","""","""","2021-08-17 18:03:41",189.180.109.139,"Mozilla/5.0 (Windows NT 10.0; Win64; x64) AppleWebKit/537.36 (KHTML, like Gecko) Chrome/92.0.4515.131 Safari/537.36",WebKit,Chrome,92.0.4515.131,Windows,10.0,5f461dd6c139dd6b46c7596cbd57cd79
222,1,"""","""","""","""","""",sampler,89,376921,0.0-6.0-83.0,"""","""","""","""","""","""","""","""","""","""","""","""","2021-08-17 18:03:41",189.180.109.139,"Mozilla/5.0 (Windows NT 10.0; Win64; x64) AppleWebKit/537.36 (KHTML, like Gecko) Chrome/92.0.4515.131 Safari/537.36",WebKit,Chrome,92.0.4515.131,Windows,10.0,5f461dd6c139dd6b46c7596cbd57cd79
222,1,"""","""","""","""","""",sampler,90,376921,0.0-6.0-84.0,"""","""","""","""","""","""","""","""","""","""","""","""","2021-08-17 18:03:41",189.180.109.139,"Mozilla/5.0 (Windows NT 10.0; Win64; x64) AppleWebKit/537.36 (KHTML, like Gecko) Chrome/92.0.4515.131 Safari/537.36",WebKit,Chrome,92.0.4515.131,Windows,10.0,5f461dd6c139dd6b46c7596cbd57cd79
222,1,"""","""","""","""","""",sampler,91,376922,0.0-6.0-85.0,"""","""","""","""","""","""","""","""","""","""","""","""","2021-08-17 18:03:41",189.180.109.139,"Mozilla/5.0 (Windows NT 10.0; Win64; x64) AppleWebKit/537.36 (KHTML, like Gecko) Chrome/92.0.4515.131 Safari/537.36",WebKit,Chrome,92.0.4515.131,Windows,10.0,5f461dd6c139dd6b46c7596cbd57cd79
222,1,"""","""","""","""","""",sampler,92,376923,0.0-6.0-86.0,"""","""","""","""","""","""","""","""","""","""","""","""","2021-08-17 18:03:41",189.180.109.139,"Mozilla/5.0 (Windows NT 10.0; Win64; x64) AppleWebKit/537.36 (KHTML, like Gecko) Chrome/92.0.4515.131 Safari/537.36",WebKit,Chrome,92.0.4515.131,Windows,10.0,5f461dd6c139dd6b46c7596cbd57cd79
222,1,"""","""","""","""","""",sampler,93,376923,0.0-6.0-87.0,"""","""","""","""","""","""","""","""","""","""","""","""","2021-08-17 18:03:41",189.180.109.139,"Mozilla/5.0 (Windows NT 10.0; Win64; x64) AppleWebKit/537.36 (KHTML, like Gecko) Chrome/92.0.4515.131 Safari/537.36",WebKit,Chrome,92.0.4515.131,Windows,10.0,5f461dd6c139dd6b46c7596cbd57cd79
222,1,"""","""","""","""","""",sampler,94,376924,0.0-6.0-88.0,"""","""","""","""","""","""","""","""","""","""","""","""","2021-08-17 18:03:41",189.180.109.139,"Mozilla/5.0 (Windows NT 10.0; Win64; x64) AppleWebKit/537.36 (KHTML, like Gecko) Chrome/92.0.4515.131 Safari/537.36",WebKit,Chrome,92.0.4515.131,Windows,10.0,5f461dd6c139dd6b46c7596cbd57cd79
222,1,"""","""","""","""","""",sampler,95,376925,0.0-6.0-89.0,"""","""","""","""","""","""","""","""","""","""","""","""","2021-08-17 18:03:41",189.180.109.139,"Mozilla/5.0 (Windows NT 10.0; Win64; x64) AppleWebKit/537.36 (KHTML, like Gecko) Chrome/92.0.4515.131 Safari/537.36",WebKit,Chrome,92.0.4515.131,Windows,10.0,5f461dd6c139dd6b46c7596cbd57cd79
222,1,"""","""","""","""","""",sampler,96,376925,0.0-6.0-90.0,"""","""","""","""","""","""","""","""","""","""","""","""","2021-08-17 18:03:41",189.180.109.139,"Mozilla/5.0 (Windows NT 10.0; Win64; x64) AppleWebKit/537.36 (KHTML, like Gecko) Chrome/92.0.4515.131 Safari/537.36",WebKit,Chrome,92.0.4515.131,Windows,10.0,5f461dd6c139dd6b46c7596cbd57cd79
222,1,"""","""","""","""","""",sampler,97,376926,0.0-6.0-91.0,"""","""","""","""","""","""","""","""","""","""","""","""","2021-08-17 18:03:41",189.180.109.139,"Mozilla/5.0 (Windows NT 10.0; Win64; x64) AppleWebKit/537.36 (KHTML, like Gecko) Chrome/92.0.4515.131 Safari/537.36",WebKit,Chrome,92.0.4515.131,Windows,10.0,5f461dd6c139dd6b46c7596cbd57cd79
222,1,"""","""","""","""","""",sampler,98,376926,0.0-6.0-92.0,"""","""","""","""","""","""","""","""","""","""","""","""","2021-08-17 18:03:41",189.180.109.139,"Mozilla/5.0 (Windows NT 10.0; Win64; x64) AppleWebKit/537.36 (KHTML, like Gecko) Chrome/92.0.4515.131 Safari/537.36",WebKit,Chrome,92.0.4515.131,Windows,10.0,5f461dd6c139dd6b46c7596cbd57cd79
222,1,"""","""","""","""","""",sampler,99,376926,0.0-6.0-93.0,"""","""","""","""","""","""","""","""","""","""","""","""","2021-08-17 18:03:41",189.180.109.139,"Mozilla/5.0 (Windows NT 10.0; Win64; x64) AppleWebKit/537.36 (KHTML, like Gecko) Chrome/92.0.4515.131 Safari/537.36",WebKit,Chrome,92.0.4515.131,Windows,10.0,5f461dd6c139dd6b46c7596cbd57cd79
222,1,"""","""","""","""","""",sampler,100,376926,0.0-6.0-94.0,"""","""","""","""","""","""","""","""","""","""","""","""","2021-08-17 18:03:41",189.180.109.139,"Mozilla/5.0 (Windows NT 10.0; Win64; x64) AppleWebKit/537.36 (KHTML, like Gecko) Chrome/92.0.4515.131 Safari/537.36",WebKit,Chrome,92.0.4515.131,Windows,10.0,5f461dd6c139dd6b46c7596cbd57cd79
222,1,"""","""","""","""","""",sampler,101,376927,0.0-6.0-95.0,"""","""","""","""","""","""","""","""","""","""","""","""","2021-08-17 18:03:41",189.180.109.139,"Mozilla/5.0 (Windows NT 10.0; Win64; x64) AppleWebKit/537.36 (KHTML, like Gecko) Chrome/92.0.4515.131 Safari/537.36",WebKit,Chrome,92.0.4515.131,Windows,10.0,5f461dd6c139dd6b46c7596cbd57cd79
222,1,"""","""","""","""","""",sampler,102,376927,0.0-6.0-96.0,"""","""","""","""","""","""","""","""","""","""","""","""","2021-08-17 18:03:41",189.180.109.139,"Mozilla/5.0 (Windows NT 10.0; Win64; x64) AppleWebKit/537.36 (KHTML, like Gecko) Chrome/92.0.4515.131 Safari/537.36",WebKit,Chrome,92.0.4515.131,Windows,10.0,5f461dd6c139dd6b46c7596cbd57cd79
222,1,"""","""","""","""","""",sampler,103,376927,0.0-6.0-97.0,"""","""","""","""","""","""","""","""","""","""","""","""","2021-08-17 18:03:41",189.180.109.139,"Mozilla/5.0 (Windows NT 10.0; Win64; x64) AppleWebKit/537.36 (KHTML, like Gecko) Chrome/92.0.4515.131 Safari/537.36",WebKit,Chrome,92.0.4515.131,Windows,10.0,5f461dd6c139dd6b46c7596cbd57cd79
222,1,"""","""","""","""","""",sampler,104,376928,0.0-6.0-98.0,"""","""","""","""","""","""","""","""","""","""","""","""","2021-08-17 18:03:41",189.180.109.139,"Mozilla/5.0 (Windows NT 10.0; Win64; x64) AppleWebKit/537.36 (KHTML, like Gecko) Chrome/92.0.4515.131 Safari/537.36",WebKit,Chrome,92.0.4515.131,Windows,10.0,5f461dd6c139dd6b46c7596cbd57cd79
222,1,"""","""","""","""","""",sampler,105,376928,0.0-6.0-99.0,"""","""","""","""","""","""","""","""","""","""","""","""","2021-08-17 18:03:41",189.180.109.139,"Mozilla/5.0 (Windows NT 10.0; Win64; x64) AppleWebKit/537.36 (KHTML, like Gecko) Chrome/92.0.4515.131 Safari/537.36",WebKit,Chrome,92.0.4515.131,Windows,10.0,5f461dd6c139dd6b46c7596cbd57cd79
222,1,"""","""","""","""","""",sampler,106,376928,0.0-6.0-100.0,"""","""","""","""","""","""","""","""","""","""","""","""","2021-08-17 18:03:41",189.180.109.139,"Mozilla/5.0 (Windows NT 10.0; Win64; x64) AppleWebKit/537.36 (KHTML, like Gecko) Chrome/92.0.4515.131 Safari/537.36",WebKit,Chrome,92.0.4515.131,Windows,10.0,5f461dd6c139dd6b46c7596cbd57cd79
222,1,"""","""","""","""","""",sampler,107,376928,0.0-6.0-101.0,"""","""","""","""","""","""","""","""","""","""","""","""","2021-08-17 18:03:41",189.180.109.139,"Mozilla/5.0 (Windows NT 10.0; Win64; x64) AppleWebKit/537.36 (KHTML, like Gecko) Chrome/92.0.4515.131 Safari/537.36",WebKit,Chrome,92.0.4515.131,Windows,10.0,5f461dd6c139dd6b46c7596cbd57cd79
222,1,"""","""","""","""","""",sampler,108,376929,0.0-6.0-102.0,"""","""","""","""","""","""","""","""","""","""","""","""","2021-08-17 18:03:41",189.180.109.139,"Mozilla/5.0 (Windows NT 10.0; Win64; x64) AppleWebKit/537.36 (KHTML, like Gecko) Chrome/92.0.4515.131 Safari/537.36",WebKit,Chrome,92.0.4515.131,Windows,10.0,5f461dd6c139dd6b46c7596cbd57cd79
222,1,"""","""","""","""","""",sampler,109,376929,0.0-6.0-103.0,"""","""","""","""","""","""","""","""","""","""","""","""","2021-08-17 18:03:41",189.180.109.139,"Mozilla/5.0 (Windows NT 10.0; Win64; x64) AppleWebKit/537.36 (KHTML, like Gecko) Chrome/92.0.4515.131 Safari/537.36",WebKit,Chrome,92.0.4515.131,Windows,10.0,5f461dd6c139dd6b46c7596cbd57cd79
222,1,"""","""","""","""","""",sampler,110,376929,0.0-6.0-104.0,"""","""","""","""","""","""","""","""","""","""","""","""","2021-08-17 18:03:41",189.180.109.139,"Mozilla/5.0 (Windows NT 10.0; Win64; x64) AppleWebKit/537.36 (KHTML, like Gecko) Chrome/92.0.4515.131 Safari/537.36",WebKit,Chrome,92.0.4515.131,Windows,10.0,5f461dd6c139dd6b46c7596cbd57cd79
222,1,"""","""","""","""","""",sampler,111,376930,0.0-6.0-105.0,"""","""","""","""","""","""","""","""","""","""","""","""","2021-08-17 18:03:41",189.180.109.139,"Mozilla/5.0 (Windows NT 10.0; Win64; x64) AppleWebKit/537.36 (KHTML, like Gecko) Chrome/92.0.4515.131 Safari/537.36",WebKit,Chrome,92.0.4515.131,Windows,10.0,5f461dd6c139dd6b46c7596cbd57cd79
222,1,"""","""","""","""","""",sampler,112,376930,0.0-6.0-106.0,"""","""","""","""","""","""","""","""","""","""","""","""","2021-08-17 18:03:41",189.180.109.139,"Mozilla/5.0 (Windows NT 10.0; Win64; x64) AppleWebKit/537.36 (KHTML, like Gecko) Chrome/92.0.4515.131 Safari/537.36",WebKit,Chrome,92.0.4515.131,Windows,10.0,5f461dd6c139dd6b46c7596cbd57cd79
222,1,"""","""","""","""","""",sampler,113,376930,0.0-6.0-107.0,"""","""","""","""","""","""","""","""","""","""","""","""","2021-08-17 18:03:41",189.180.109.139,"Mozilla/5.0 (Windows NT 10.0; Win64; x64) AppleWebKit/537.36 (KHTML, like Gecko) Chrome/92.0.4515.131 Safari/537.36",WebKit,Chrome,92.0.4515.131,Windows,10.0,5f461dd6c139dd6b46c7596cbd57cd79
222,1,"""","""","""","""","""",sampler,114,376930,0.0-6.0-108.0,"""","""","""","""","""","""","""","""","""","""","""","""","2021-08-17 18:03:41",189.180.109.139,"Mozilla/5.0 (Windows NT 10.0; Win64; x64) AppleWebKit/537.36 (KHTML, like Gecko) Chrome/92.0.4515.131 Safari/537.36",WebKit,Chrome,92.0.4515.131,Windows,10.0,5f461dd6c139dd6b46c7596cbd57cd79
222,1,"""","""","""","""","""",sampler,115,376931,0.0-6.0-109.0,"""","""","""","""","""","""","""","""","""","""","""","""","2021-08-17 18:03:41",189.180.109.139,"Mozilla/5.0 (Windows NT 10.0; Win64; x64) AppleWebKit/537.36 (KHTML, like Gecko) Chrome/92.0.4515.131 Safari/537.36",WebKit,Chrome,92.0.4515.131,Windows,10.0,5f461dd6c139dd6b46c7596cbd57cd79
222,1,"""","""","""","""","""",sampler,116,376931,0.0-6.0-110.0,"""","""","""","""","""","""","""","""","""","""","""","""","2021-08-17 18:03:41",189.180.109.139,"Mozilla/5.0 (Windows NT 10.0; Win64; x64) AppleWebKit/537.36 (KHTML, like Gecko) Chrome/92.0.4515.131 Safari/537.36",WebKit,Chrome,92.0.4515.131,Windows,10.0,5f461dd6c139dd6b46c7596cbd57cd79
222,1,"""","""","""","""","""",sampler,117,376931,0.0-6.0-111.0,"""","""","""","""","""","""","""","""","""","""","""","""","2021-08-17 18:03:41",189.180.109.139,"Mozilla/5.0 (Windows NT 10.0; Win64; x64) AppleWebKit/537.36 (KHTML, like Gecko) Chrome/92.0.4515.131 Safari/537.36",WebKit,Chrome,92.0.4515.131,Windows,10.0,5f461dd6c139dd6b46c7596cbd57cd79
222,1,"""","""","""","""","""",sampler,118,376931,0.0-6.0-112.0,"""","""","""","""","""","""","""","""","""","""","""","""","2021-08-17 18:03:41",189.180.109.139,"Mozilla/5.0 (Windows NT 10.0; Win64; x64) AppleWebKit/537.36 (KHTML, like Gecko) Chrome/92.0.4515.131 Safari/537.36",WebKit,Chrome,92.0.4515.131,Windows,10.0,5f461dd6c139dd6b46c7596cbd57cd79
222,1,"""","""","""","""","""",sampler,119,376931,0.0-6.0-113.0,"""","""","""","""","""","""","""","""","""","""","""","""","2021-08-17 18:03:41",189.180.109.139,"Mozilla/5.0 (Windows NT 10.0; Win64; x64) AppleWebKit/537.36 (KHTML, like Gecko) Chrome/92.0.4515.131 Safari/537.36",WebKit,Chrome,92.0.4515.131,Windows,10.0,5f461dd6c139dd6b46c7596cbd57cd79
222,1,"""","""","""","""","""",sampler,120,376931,0.0-6.0-114.0,"""","""","""","""","""","""","""","""","""","""","""","""","2021-08-17 18:03:41",189.180.109.139,"Mozilla/5.0 (Windows NT 10.0; Win64; x64) AppleWebKit/537.36 (KHTML, like Gecko) Chrome/92.0.4515.131 Safari/537.36",WebKit,Chrome,92.0.4515.131,Windows,10.0,5f461dd6c139dd6b46c7596cbd57cd79
222,1,"""","""","""","""","""",sampler,121,376931,0.0-6.0-115.0,"""","""","""","""","""","""","""","""","""","""","""","""","2021-08-17 18:03:41",189.180.109.139,"Mozilla/5.0 (Windows NT 10.0; Win64; x64) AppleWebKit/537.36 (KHTML, like Gecko) Chrome/92.0.4515.131 Safari/537.36",WebKit,Chrome,92.0.4515.131,Windows,10.0,5f461dd6c139dd6b46c7596cbd57cd79
222,1,"""","""","""","""","""",sampler,122,376932,0.0-6.0-116.0,"""","""","""","""","""","""","""","""","""","""","""","""","2021-08-17 18:03:41",189.180.109.139,"Mozilla/5.0 (Windows NT 10.0; Win64; x64) AppleWebKit/537.36 (KHTML, like Gecko) Chrome/92.0.4515.131 Safari/537.36",WebKit,Chrome,92.0.4515.131,Windows,10.0,5f461dd6c139dd6b46c7596cbd57cd79
222,1,"""","""","""","""","""",sampler,123,376932,0.0-6.0-117.0,"""","""","""","""","""","""","""","""","""","""","""","""","2021-08-17 18:03:41",189.180.109.139,"Mozilla/5.0 (Windows NT 10.0; Win64; x64) AppleWebKit/537.36 (KHTML, like Gecko) Chrome/92.0.4515.131 Safari/537.36",WebKit,Chrome,92.0.4515.131,Windows,10.0,5f461dd6c139dd6b46c7596cbd57cd79
222,1,"""","""","""","""","""",sampler,124,376932,0.0-6.0-118.0,"""","""","""","""","""","""","""","""","""","""","""","""","2021-08-17 18:03:41",189.180.109.139,"Mozilla/5.0 (Windows NT 10.0; Win64; x64) AppleWebKit/537.36 (KHTML, like Gecko) Chrome/92.0.4515.131 Safari/537.36",WebKit,Chrome,92.0.4515.131,Windows,10.0,5f461dd6c139dd6b46c7596cbd57cd79
222,1,"""","""","""","""","""",sampler,125,376932,0.0-6.0-119.0,"""","""","""","""","""","""","""","""","""","""","""","""","2021-08-17 18:03:41",189.180.109.139,"Mozilla/5.0 (Windows NT 10.0; Win64; x64) AppleWebKit/537.36 (KHTML, like Gecko) Chrome/92.0.4515.131 Safari/537.36",WebKit,Chrome,92.0.4515.131,Windows,10.0,5f461dd6c139dd6b46c7596cbd57cd79
222,1,"""","""","""","""","""",sampler,126,376932,0.0-6.0-120.0,"""","""","""","""","""","""","""","""","""","""","""","""","2021-08-17 18:03:41",189.180.109.139,"Mozilla/5.0 (Windows NT 10.0; Win64; x64) AppleWebKit/537.36 (KHTML, like Gecko) Chrome/92.0.4515.131 Safari/537.36",WebKit,Chrome,92.0.4515.131,Windows,10.0,5f461dd6c139dd6b46c7596cbd57cd79
222,1,"""","""","""","""","""",sampler,127,376932,0.0-6.0-121.0,"""","""","""","""","""","""","""","""","""","""","""","""","2021-08-17 18:03:41",189.180.109.139,"Mozilla/5.0 (Windows NT 10.0; Win64; x64) AppleWebKit/537.36 (KHTML, like Gecko) Chrome/92.0.4515.131 Safari/537.36",WebKit,Chrome,92.0.4515.131,Windows,10.0,5f461dd6c139dd6b46c7596cbd57cd79
222,1,"""","""","""","""","""",sampler,128,376932,0.0-6.0-122.0,"""","""","""","""","""","""","""","""","""","""","""","""","2021-08-17 18:03:41",189.180.109.139,"Mozilla/5.0 (Windows NT 10.0; Win64; x64) AppleWebKit/537.36 (KHTML, like Gecko) Chrome/92.0.4515.131 Safari/537.36",WebKit,Chrome,92.0.4515.131,Windows,10.0,5f461dd6c139dd6b46c7596cbd57cd79
222,1,"""","""","""","""","""",sampler,129,376933,0.0-6.0-123.0,"""","""","""","""","""","""","""","""","""","""","""","""","2021-08-17 18:03:41",189.180.109.139,"Mozilla/5.0 (Windows NT 10.0; Win64; x64) AppleWebKit/537.36 (KHTML, like Gecko) Chrome/92.0.4515.131 Safari/537.36",WebKit,Chrome,92.0.4515.131,Windows,10.0,5f461dd6c139dd6b46c7596cbd57cd79
222,1,"""","""","""","""","""",sampler,130,376933,0.0-6.0-124.0,"""","""","""","""","""","""","""","""","""","""","""","""","2021-08-17 18:03:41",189.180.109.139,"Mozilla/5.0 (Windows NT 10.0; Win64; x64) AppleWebKit/537.36 (KHTML, like Gecko) Chrome/92.0.4515.131 Safari/537.36",WebKit,Chrome,92.0.4515.131,Windows,10.0,5f461dd6c139dd6b46c7596cbd57cd79
222,1,"""","""","""","""","""",sampler,131,376933,0.0-6.0-125.0,"""","""","""","""","""","""","""","""","""","""","""","""","2021-08-17 18:03:41",189.180.109.139,"Mozilla/5.0 (Windows NT 10.0; Win64; x64) AppleWebKit/537.36 (KHTML, like Gecko) Chrome/92.0.4515.131 Safari/537.36",WebKit,Chrome,92.0.4515.131,Windows,10.0,5f461dd6c139dd6b46c7596cbd57cd79
222,1,"""","""","""","""","""",sampler,132,376933,0.0-6.0-126.0,"""","""","""","""","""","""","""","""","""","""","""","""","2021-08-17 18:03:41",189.180.109.139,"Mozilla/5.0 (Windows NT 10.0; Win64; x64) AppleWebKit/537.36 (KHTML, like Gecko) Chrome/92.0.4515.131 Safari/537.36",WebKit,Chrome,92.0.4515.131,Windows,10.0,5f461dd6c139dd6b46c7596cbd57cd79
222,1,"""","""","""","""","""",sampler,133,376933,0.0-6.0-127.0,"""","""","""","""","""","""","""","""","""","""","""","""","2021-08-17 18:03:41",189.180.109.139,"Mozilla/5.0 (Windows NT 10.0; Win64; x64) AppleWebKit/537.36 (KHTML, like Gecko) Chrome/92.0.4515.131 Safari/537.36",WebKit,Chrome,92.0.4515.131,Windows,10.0,5f461dd6c139dd6b46c7596cbd57cd79
222,1,"""","""","""","""","""",sampler,134,376933,0.0-6.0-128.0,"""","""","""","""","""","""","""","""","""","""","""","""","2021-08-17 18:03:41",189.180.109.139,"Mozilla/5.0 (Windows NT 10.0; Win64; x64) AppleWebKit/537.36 (KHTML, like Gecko) Chrome/92.0.4515.131 Safari/537.36",WebKit,Chrome,92.0.4515.131,Windows,10.0,5f461dd6c139dd6b46c7596cbd57cd79
222,1,"""","""","""","""","""",sampler,135,376933,0.0-6.0-129.0,"""","""","""","""","""","""","""","""","""","""","""","""","2021-08-17 18:03:41",189.180.109.139,"Mozilla/5.0 (Windows NT 10.0; Win64; x64) AppleWebKit/537.36 (KHTML, like Gecko) Chrome/92.0.4515.131 Safari/537.36",WebKit,Chrome,92.0.4515.131,Windows,10.0,5f461dd6c139dd6b46c7596cbd57cd79
222,1,"""","""","""","""","""",sampler,136,376933,0.0-6.0-130.0,"""","""","""","""","""","""","""","""","""","""","""","""","2021-08-17 18:03:41",189.180.109.139,"Mozilla/5.0 (Windows NT 10.0; Win64; x64) AppleWebKit/537.36 (KHTML, like Gecko) Chrome/92.0.4515.131 Safari/537.36",WebKit,Chrome,92.0.4515.131,Windows,10.0,5f461dd6c139dd6b46c7596cbd57cd79
222,1,"""","""","""","""","""",sampler,137,376935,0.0-6.0-131.0,"""","""","""","""","""","""","""","""","""","""","""","""","2021-08-17 18:03:41",189.180.109.139,"Mozilla/5.0 (Windows NT 10.0; Win64; x64) AppleWebKit/537.36 (KHTML, like Gecko) Chrome/92.0.4515.131 Safari/537.36",WebKit,Chrome,92.0.4515.131,Windows,10.0,5f461dd6c139dd6b46c7596cbd57cd79
222,1,"""","""","""","""","""",sampler,138,376935,0.0-6.0-132.0,"""","""","""","""","""","""","""","""","""","""","""","""","2021-08-17 18:03:41",189.180.109.139,"Mozilla/5.0 (Windows NT 10.0; Win64; x64) AppleWebKit/537.36 (KHTML, like Gecko) Chrome/92.0.4515.131 Safari/537.36",WebKit,Chrome,92.0.4515.131,Windows,10.0,5f461dd6c139dd6b46c7596cbd57cd79
222,1,"""","""","""","""","""",sampler,139,376935,0.0-6.0-133.0,"""","""","""","""","""","""","""","""","""","""","""","""","2021-08-17 18:03:41",189.180.109.139,"Mozilla/5.0 (Windows NT 10.0; Win64; x64) AppleWebKit/537.36 (KHTML, like Gecko) Chrome/92.0.4515.131 Safari/537.36",WebKit,Chrome,92.0.4515.131,Windows,10.0,5f461dd6c139dd6b46c7596cbd57cd79
222,1,"""","""","""","""","""",sampler,140,376935,0.0-6.0-134.0,"""","""","""","""","""","""","""","""","""","""","""","""","2021-08-17 18:03:41",189.180.109.139,"Mozilla/5.0 (Windows NT 10.0; Win64; x64) AppleWebKit/537.36 (KHTML, like Gecko) Chrome/92.0.4515.131 Safari/537.36",WebKit,Chrome,92.0.4515.131,Windows,10.0,5f461dd6c139dd6b46c7596cbd57cd79
222,1,"""","""","""","""","""",sampler,141,376935,0.0-6.0-135.0,"""","""","""","""","""","""","""","""","""","""","""","""","2021-08-17 18:03:41",189.180.109.139,"Mozilla/5.0 (Windows NT 10.0; Win64; x64) AppleWebKit/537.36 (KHTML, like Gecko) Chrome/92.0.4515.131 Safari/537.36",WebKit,Chrome,92.0.4515.131,Windows,10.0,5f461dd6c139dd6b46c7596cbd57cd79
222,1,"""","""","""","""","""",sampler,142,376935,0.0-6.0-136.0,"""","""","""","""","""","""","""","""","""","""","""","""","2021-08-17 18:03:41",189.180.109.139,"Mozilla/5.0 (Windows NT 10.0; Win64; x64) AppleWebKit/537.36 (KHTML, like Gecko) Chrome/92.0.4515.131 Safari/537.36",WebKit,Chrome,92.0.4515.131,Windows,10.0,5f461dd6c139dd6b46c7596cbd57cd79
222,1,"""","""","""","""","""",sampler,143,376935,0.0-6.0-137.0,"""","""","""","""","""","""","""","""","""","""","""","""","2021-08-17 18:03:41",189.180.109.139,"Mozilla/5.0 (Windows NT 10.0; Win64; x64) AppleWebKit/537.36 (KHTML, like Gecko) Chrome/92.0.4515.131 Safari/537.36",WebKit,Chrome,92.0.4515.131,Windows,10.0,5f461dd6c139dd6b46c7596cbd57cd79
222,1,"""","""","""","""","""",sampler,144,376936,0.0-6.0-138.0,"""","""","""","""","""","""","""","""","""","""","""","""","2021-08-17 18:03:41",189.180.109.139,"Mozilla/5.0 (Windows NT 10.0; Win64; x64) AppleWebKit/537.36 (KHTML, like Gecko) Chrome/92.0.4515.131 Safari/537.36",WebKit,Chrome,92.0.4515.131,Windows,10.0,5f461dd6c139dd6b46c7596cbd57cd79
222,1,"""","""","""","""","""",sampler,145,376936,0.0-6.0-139.0,"""","""","""","""","""","""","""","""","""","""","""","""","2021-08-17 18:03:41",189.180.109.139,"Mozilla/5.0 (Windows NT 10.0; Win64; x64) AppleWebKit/537.36 (KHTML, like Gecko) Chrome/92.0.4515.131 Safari/537.36",WebKit,Chrome,92.0.4515.131,Windows,10.0,5f461dd6c139dd6b46c7596cbd57cd79
222,1,"""","""","""","""","""",sampler,146,376936,0.0-6.0-140.0,"""","""","""","""","""","""","""","""","""","""","""","""","2021-08-17 18:03:41",189.180.109.139,"Mozilla/5.0 (Windows NT 10.0; Win64; x64) AppleWebKit/537.36 (KHTML, like Gecko) Chrome/92.0.4515.131 Safari/537.36",WebKit,Chrome,92.0.4515.131,Windows,10.0,5f461dd6c139dd6b46c7596cbd57cd79
222,1,"""","""","""","""","""",sampler,147,376936,0.0-6.0-141.0,"""","""","""","""","""","""","""","""","""","""","""","""","2021-08-17 18:03:41",189.180.109.139,"Mozilla/5.0 (Windows NT 10.0; Win64; x64) AppleWebKit/537.36 (KHTML, like Gecko) Chrome/92.0.4515.131 Safari/537.36",WebKit,Chrome,92.0.4515.131,Windows,10.0,5f461dd6c139dd6b46c7596cbd57cd79
222,1,"""","""","""","""","""",sampler,148,376936,0.0-6.0-142.0,"""","""","""","""","""","""","""","""","""","""","""","""","2021-08-17 18:03:41",189.180.109.139,"Mozilla/5.0 (Windows NT 10.0; Win64; x64) AppleWebKit/537.36 (KHTML, like Gecko) Chrome/92.0.4515.131 Safari/537.36",WebKit,Chrome,92.0.4515.131,Windows,10.0,5f461dd6c139dd6b46c7596cbd57cd79
222,1,"""","""","""","""","""",sampler,149,376936,0.0-6.0-143.0,"""","""","""","""","""","""","""","""","""","""","""","""","2021-08-17 18:03:41",189.180.109.139,"Mozilla/5.0 (Windows NT 10.0; Win64; x64) AppleWebKit/537.36 (KHTML, like Gecko) Chrome/92.0.4515.131 Safari/537.36",WebKit,Chrome,92.0.4515.131,Windows,10.0,5f461dd6c139dd6b46c7596cbd57cd79
222,1,"""","""","""","""","""",sampler,150,376936,0.0-6.0-144.0,"""","""","""","""","""","""","""","""","""","""","""","""","2021-08-17 18:03:41",189.180.109.139,"Mozilla/5.0 (Windows NT 10.0; Win64; x64) AppleWebKit/537.36 (KHTML, like Gecko) Chrome/92.0.4515.131 Safari/537.36",WebKit,Chrome,92.0.4515.131,Windows,10.0,5f461dd6c139dd6b46c7596cbd57cd79
222,1,"""","""","""","""","""",sampler,151,376936,0.0-6.0-145.0,"""","""","""","""","""","""","""","""","""","""","""","""","2021-08-17 18:03:41",189.180.109.139,"Mozilla/5.0 (Windows NT 10.0; Win64; x64) AppleWebKit/537.36 (KHTML, like Gecko) Chrome/92.0.4515.131 Safari/537.36",WebKit,Chrome,92.0.4515.131,Windows,10.0,5f461dd6c139dd6b46c7596cbd57cd79
222,1,"""","""","""","""","""",sampler,152,376937,0.0-6.0-146.0,"""","""","""","""","""","""","""","""","""","""","""","""","2021-08-17 18:03:41",189.180.109.139,"Mozilla/5.0 (Windows NT 10.0; Win64; x64) AppleWebKit/537.36 (KHTML, like Gecko) Chrome/92.0.4515.131 Safari/537.36",WebKit,Chrome,92.0.4515.131,Windows,10.0,5f461dd6c139dd6b46c7596cbd57cd79
222,1,"""","""","""","""","""",sampler,153,376937,0.0-6.0-147.0,"""","""","""","""","""","""","""","""","""","""","""","""","2021-08-17 18:03:41",189.180.109.139,"Mozilla/5.0 (Windows NT 10.0; Win64; x64) AppleWebKit/537.36 (KHTML, like Gecko) Chrome/92.0.4515.131 Safari/537.36",WebKit,Chrome,92.0.4515.131,Windows,10.0,5f461dd6c139dd6b46c7596cbd57cd79
222,1,"""","""","""","""","""",sampler,154,376937,0.0-6.0-148.0,"""","""","""","""","""","""","""","""","""","""","""","""","2021-08-17 18:03:41",189.180.109.139,"Mozilla/5.0 (Windows NT 10.0; Win64; x64) AppleWebKit/537.36 (KHTML, like Gecko) Chrome/92.0.4515.131 Safari/537.36",WebKit,Chrome,92.0.4515.131,Windows,10.0,5f461dd6c139dd6b46c7596cbd57cd79
222,1,"""","""","""","""","""",sampler,155,376937,0.0-6.0-149.0,"""","""","""","""","""","""","""","""","""","""","""","""","2021-08-17 18:03:41",189.180.109.139,"Mozilla/5.0 (Windows NT 10.0; Win64; x64) AppleWebKit/537.36 (KHTML, like Gecko) Chrome/92.0.4515.131 Safari/537.36",WebKit,Chrome,92.0.4515.131,Windows,10.0,5f461dd6c139dd6b46c7596cbd57cd79
222,1,"""","""","""","""","""",sampler,156,376937,0.0-6.0-150.0,"""","""","""","""","""","""","""","""","""","""","""","""","2021-08-17 18:03:41",189.180.109.139,"Mozilla/5.0 (Windows NT 10.0; Win64; x64) AppleWebKit/537.36 (KHTML, like Gecko) Chrome/92.0.4515.131 Safari/537.36",WebKit,Chrome,92.0.4515.131,Windows,10.0,5f461dd6c139dd6b46c7596cbd57cd79
222,1,"""","""","""","""","""",sampler,157,376937,0.0-6.0-151.0,"""","""","""","""","""","""","""","""","""","""","""","""","2021-08-17 18:03:41",189.180.109.139,"Mozilla/5.0 (Windows NT 10.0; Win64; x64) AppleWebKit/537.36 (KHTML, like Gecko) Chrome/92.0.4515.131 Safari/537.36",WebKit,Chrome,92.0.4515.131,Windows,10.0,5f461dd6c139dd6b46c7596cbd57cd79
222,1,"""","""","""","""","""",sampler,158,376937,0.0-6.0-152.0,"""","""","""","""","""","""","""","""","""","""","""","""","2021-08-17 18:03:41",189.180.109.139,"Mozilla/5.0 (Windows NT 10.0; Win64; x64) AppleWebKit/537.36 (KHTML, like Gecko) Chrome/92.0.4515.131 Safari/537.36",WebKit,Chrome,92.0.4515.131,Windows,10.0,5f461dd6c139dd6b46c7596cbd57cd79
222,1,"""","""","""","""","""",sampler,159,376938,0.0-6.0-153.0,"""","""","""","""","""","""","""","""","""","""","""","""","2021-08-17 18:03:41",189.180.109.139,"Mozilla/5.0 (Windows NT 10.0; Win64; x64) AppleWebKit/537.36 (KHTML, like Gecko) Chrome/92.0.4515.131 Safari/537.36",WebKit,Chrome,92.0.4515.131,Windows,10.0,5f461dd6c139dd6b46c7596cbd57cd79
222,1,"""","""","""","""","""",sampler,160,376938,0.0-6.0-154.0,"""","""","""","""","""","""","""","""","""","""","""","""","2021-08-17 18:03:41",189.180.109.139,"Mozilla/5.0 (Windows NT 10.0; Win64; x64) AppleWebKit/537.36 (KHTML, like Gecko) Chrome/92.0.4515.131 Safari/537.36",WebKit,Chrome,92.0.4515.131,Windows,10.0,5f461dd6c139dd6b46c7596cbd57cd79
222,1,"""","""","""","""","""",sampler,161,376938,0.0-6.0-155.0,"""","""","""","""","""","""","""","""","""","""","""","""","2021-08-17 18:03:41",189.180.109.139,"Mozilla/5.0 (Windows NT 10.0; Win64; x64) AppleWebKit/537.36 (KHTML, like Gecko) Chrome/92.0.4515.131 Safari/537.36",WebKit,Chrome,92.0.4515.131,Windows,10.0,5f461dd6c139dd6b46c7596cbd57cd79
222,1,"""","""","""","""","""",sampler,162,376938,0.0-6.0-156.0,"""","""","""","""","""","""","""","""","""","""","""","""","2021-08-17 18:03:41",189.180.109.139,"Mozilla/5.0 (Windows NT 10.0; Win64; x64) AppleWebKit/537.36 (KHTML, like Gecko) Chrome/92.0.4515.131 Safari/537.36",WebKit,Chrome,92.0.4515.131,Windows,10.0,5f461dd6c139dd6b46c7596cbd57cd79
222,1,"""","""","""","""","""",sampler,163,376938,0.0-6.0-157.0,"""","""","""","""","""","""","""","""","""","""","""","""","2021-08-17 18:03:41",189.180.109.139,"Mozilla/5.0 (Windows NT 10.0; Win64; x64) AppleWebKit/537.36 (KHTML, like Gecko) Chrome/92.0.4515.131 Safari/537.36",WebKit,Chrome,92.0.4515.131,Windows,10.0,5f461dd6c139dd6b46c7596cbd57cd79
222,1,"""","""","""","""","""",sampler,164,376938,0.0-6.0-158.0,"""","""","""","""","""","""","""","""","""","""","""","""","2021-08-17 18:03:41",189.180.109.139,"Mozilla/5.0 (Windows NT 10.0; Win64; x64) AppleWebKit/537.36 (KHTML, like Gecko) Chrome/92.0.4515.131 Safari/537.36",WebKit,Chrome,92.0.4515.131,Windows,10.0,5f461dd6c139dd6b46c7596cbd57cd79
222,1,"""","""","""","""","""",sampler,165,376938,0.0-6.0-159.0,"""","""","""","""","""","""","""","""","""","""","""","""","2021-08-17 18:03:41",189.180.109.139,"Mozilla/5.0 (Windows NT 10.0; Win64; x64) AppleWebKit/537.36 (KHTML, like Gecko) Chrome/92.0.4515.131 Safari/537.36",WebKit,Chrome,92.0.4515.131,Windows,10.0,5f461dd6c139dd6b46c7596cbd57cd79
222,1,"""","""","""","""","""",sampler,166,376938,0.0-6.0-160.0,"""","""","""","""","""","""","""","""","""","""","""","""","2021-08-17 18:03:41",189.180.109.139,"Mozilla/5.0 (Windows NT 10.0; Win64; x64) AppleWebKit/537.36 (KHTML, like Gecko) Chrome/92.0.4515.131 Safari/537.36",WebKit,Chrome,92.0.4515.131,Windows,10.0,5f461dd6c139dd6b46c7596cbd57cd79
222,1,"""","""","""","""","""",sampler,167,376939,0.0-6.0-161.0,"""","""","""","""","""","""","""","""","""","""","""","""","2021-08-17 18:03:41",189.180.109.139,"Mozilla/5.0 (Windows NT 10.0; Win64; x64) AppleWebKit/537.36 (KHTML, like Gecko) Chrome/92.0.4515.131 Safari/537.36",WebKit,Chrome,92.0.4515.131,Windows,10.0,5f461dd6c139dd6b46c7596cbd57cd79
222,1,"""","""","""","""","""",sampler,168,376939,0.0-6.0-162.0,"""","""","""","""","""","""","""","""","""","""","""","""","2021-08-17 18:03:41",189.180.109.139,"Mozilla/5.0 (Windows NT 10.0; Win64; x64) AppleWebKit/537.36 (KHTML, like Gecko) Chrome/92.0.4515.131 Safari/537.36",WebKit,Chrome,92.0.4515.131,Windows,10.0,5f461dd6c139dd6b46c7596cbd57cd79
222,1,"""","""","""","""","""",sampler,169,376939,0.0-6.0-163.0,"""","""","""","""","""","""","""","""","""","""","""","""","2021-08-17 18:03:41",189.180.109.139,"Mozilla/5.0 (Windows NT 10.0; Win64; x64) AppleWebKit/537.36 (KHTML, like Gecko) Chrome/92.0.4515.131 Safari/537.36",WebKit,Chrome,92.0.4515.131,Windows,10.0,5f461dd6c139dd6b46c7596cbd57cd79
222,1,"""","""","""","""","""",sampler,170,376939,0.0-6.0-164.0,"""","""","""","""","""","""","""","""","""","""","""","""","2021-08-17 18:03:41",189.180.109.139,"Mozilla/5.0 (Windows NT 10.0; Win64; x64) AppleWebKit/537.36 (KHTML, like Gecko) Chrome/92.0.4515.131 Safari/537.36",WebKit,Chrome,92.0.4515.131,Windows,10.0,5f461dd6c139dd6b46c7596cbd57cd79
222,1,"""","""","""","""","""",sampler,171,376939,0.0-6.0-165.0,"""","""","""","""","""","""","""","""","""","""","""","""","2021-08-17 18:03:41",189.180.109.139,"Mozilla/5.0 (Windows NT 10.0; Win64; x64) AppleWebKit/537.36 (KHTML, like Gecko) Chrome/92.0.4515.131 Safari/537.36",WebKit,Chrome,92.0.4515.131,Windows,10.0,5f461dd6c139dd6b46c7596cbd57cd79
222,1,"""","""","""","""","""",sampler,172,376939,0.0-6.0-166.0,"""","""","""","""","""","""","""","""","""","""","""","""","2021-08-17 18:03:41",189.180.109.139,"Mozilla/5.0 (Windows NT 10.0; Win64; x64) AppleWebKit/537.36 (KHTML, like Gecko) Chrome/92.0.4515.131 Safari/537.36",WebKit,Chrome,92.0.4515.131,Windows,10.0,5f461dd6c139dd6b46c7596cbd57cd79
222,1,"""","""","""","""","""",sampler,173,376939,0.0-6.0-167.0,"""","""","""","""","""","""","""","""","""","""","""","""","2021-08-17 18:03:41",189.180.109.139,"Mozilla/5.0 (Windows NT 10.0; Win64; x64) AppleWebKit/537.36 (KHTML, like Gecko) Chrome/92.0.4515.131 Safari/537.36",WebKit,Chrome,92.0.4515.131,Windows,10.0,5f461dd6c139dd6b46c7596cbd57cd79
222,1,"""","""","""","""","""",sampler,174,376940,0.0-6.0-168.0,"""","""","""","""","""","""","""","""","""","""","""","""","2021-08-17 18:03:41",189.180.109.139,"Mozilla/5.0 (Windows NT 10.0; Win64; x64) AppleWebKit/537.36 (KHTML, like Gecko) Chrome/92.0.4515.131 Safari/537.36",WebKit,Chrome,92.0.4515.131,Windows,10.0,5f461dd6c139dd6b46c7596cbd57cd79
222,1,"""","""","""","""","""",sampler,175,376940,0.0-6.0-169.0,"""","""","""","""","""","""","""","""","""","""","""","""","2021-08-17 18:03:41",189.180.109.139,"Mozilla/5.0 (Windows NT 10.0; Win64; x64) AppleWebKit/537.36 (KHTML, like Gecko) Chrome/92.0.4515.131 Safari/537.36",WebKit,Chrome,92.0.4515.131,Windows,10.0,5f461dd6c139dd6b46c7596cbd57cd79
222,1,"""","""","""","""","""",sampler,176,376940,0.0-6.0-170.0,"""","""","""","""","""","""","""","""","""","""","""","""","2021-08-17 18:03:41",189.180.109.139,"Mozilla/5.0 (Windows NT 10.0; Win64; x64) AppleWebKit/537.36 (KHTML, like Gecko) Chrome/92.0.4515.131 Safari/537.36",WebKit,Chrome,92.0.4515.131,Windows,10.0,5f461dd6c139dd6b46c7596cbd57cd79
222,1,"""","""","""","""","""",sampler,177,376940,0.0-6.0-171.0,"""","""","""","""","""","""","""","""","""","""","""","""","2021-08-17 18:03:41",189.180.109.139,"Mozilla/5.0 (Windows NT 10.0; Win64; x64) AppleWebKit/537.36 (KHTML, like Gecko) Chrome/92.0.4515.131 Safari/537.36",WebKit,Chrome,92.0.4515.131,Windows,10.0,5f461dd6c139dd6b46c7596cbd57cd79
222,1,"""","""","""","""","""",sampler,178,376940,0.0-6.0-172.0,"""","""","""","""","""","""","""","""","""","""","""","""","2021-08-17 18:03:41",189.180.109.139,"Mozilla/5.0 (Windows NT 10.0; Win64; x64) AppleWebKit/537.36 (KHTML, like Gecko) Chrome/92.0.4515.131 Safari/537.36",WebKit,Chrome,92.0.4515.131,Windows,10.0,5f461dd6c139dd6b46c7596cbd57cd79
222,1,"""","""","""","""","""",sampler,179,376940,0.0-6.0-173.0,"""","""","""","""","""","""","""","""","""","""","""","""","2021-08-17 18:03:41",189.180.109.139,"Mozilla/5.0 (Windows NT 10.0; Win64; x64) AppleWebKit/537.36 (KHTML, like Gecko) Chrome/92.0.4515.131 Safari/537.36",WebKit,Chrome,92.0.4515.131,Windows,10.0,5f461dd6c139dd6b46c7596cbd57cd79
222,1,"""","""","""","""","""",sampler,180,376940,0.0-6.0-174.0,"""","""","""","""","""","""","""","""","""","""","""","""","2021-08-17 18:03:41",189.180.109.139,"Mozilla/5.0 (Windows NT 10.0; Win64; x64) AppleWebKit/537.36 (KHTML, like Gecko) Chrome/92.0.4515.131 Safari/537.36",WebKit,Chrome,92.0.4515.131,Windows,10.0,5f461dd6c139dd6b46c7596cbd57cd79
222,1,"""","""","""","""","""",sampler,181,376940,0.0-6.0-175.0,"""","""","""","""","""","""","""","""","""","""","""","""","2021-08-17 18:03:41",189.180.109.139,"Mozilla/5.0 (Windows NT 10.0; Win64; x64) AppleWebKit/537.36 (KHTML, like Gecko) Chrome/92.0.4515.131 Safari/537.36",WebKit,Chrome,92.0.4515.131,Windows,10.0,5f461dd6c139dd6b46c7596cbd57cd79
222,1,"""","""","""","""","""",sampler,182,376941,0.0-6.0-176.0,"""","""","""","""","""","""","""","""","""","""","""","""","2021-08-17 18:03:41",189.180.109.139,"Mozilla/5.0 (Windows NT 10.0; Win64; x64) AppleWebKit/537.36 (KHTML, like Gecko) Chrome/92.0.4515.131 Safari/537.36",WebKit,Chrome,92.0.4515.131,Windows,10.0,5f461dd6c139dd6b46c7596cbd57cd79
222,1,"""","""","""","""","""",sampler,183,376941,0.0-6.0-177.0,"""","""","""","""","""","""","""","""","""","""","""","""","2021-08-17 18:03:41",189.180.109.139,"Mozilla/5.0 (Windows NT 10.0; Win64; x64) AppleWebKit/537.36 (KHTML, like Gecko) Chrome/92.0.4515.131 Safari/537.36",WebKit,Chrome,92.0.4515.131,Windows,10.0,5f461dd6c139dd6b46c7596cbd57cd79
222,1,"""","""","""","""","""",sampler,184,376941,0.0-6.0-178.0,"""","""","""","""","""","""","""","""","""","""","""","""","2021-08-17 18:03:41",189.180.109.139,"Mozilla/5.0 (Windows NT 10.0; Win64; x64) AppleWebKit/537.36 (KHTML, like Gecko) Chrome/92.0.4515.131 Safari/537.36",WebKit,Chrome,92.0.4515.131,Windows,10.0,5f461dd6c139dd6b46c7596cbd57cd79
222,1,"""","""","""","""","""",sampler,185,376941,0.0-6.0-179.0,"""","""","""","""","""","""","""","""","""","""","""","""","2021-08-17 18:03:41",189.180.109.139,"Mozilla/5.0 (Windows NT 10.0; Win64; x64) AppleWebKit/537.36 (KHTML, like Gecko) Chrome/92.0.4515.131 Safari/537.36",WebKit,Chrome,92.0.4515.131,Windows,10.0,5f461dd6c139dd6b46c7596cbd57cd79
222,1,"""","""","""","""","""",sampler,186,376941,0.0-6.0-180.0,"""","""","""","""","""","""","""","""","""","""","""","""","2021-08-17 18:03:41",189.180.109.139,"Mozilla/5.0 (Windows NT 10.0; Win64; x64) AppleWebKit/537.36 (KHTML, like Gecko) Chrome/92.0.4515.131 Safari/537.36",WebKit,Chrome,92.0.4515.131,Windows,10.0,5f461dd6c139dd6b46c7596cbd57cd79
222,1,"""","""","""","""","""",sampler,187,376941,0.0-6.0-181.0,"""","""","""","""","""","""","""","""","""","""","""","""","2021-08-17 18:03:41",189.180.109.139,"Mozilla/5.0 (Windows NT 10.0; Win64; x64) AppleWebKit/537.36 (KHTML, like Gecko) Chrome/92.0.4515.131 Safari/537.36",WebKit,Chrome,92.0.4515.131,Windows,10.0,5f461dd6c139dd6b46c7596cbd57cd79
222,1,"""","""","""","""","""",sampler,188,376941,0.0-6.0-182.0,"""","""","""","""","""","""","""","""","""","""","""","""","2021-08-17 18:03:41",189.180.109.139,"Mozilla/5.0 (Windows NT 10.0; Win64; x64) AppleWebKit/537.36 (KHTML, like Gecko) Chrome/92.0.4515.131 Safari/537.36",WebKit,Chrome,92.0.4515.131,Windows,10.0,5f461dd6c139dd6b46c7596cbd57cd79
222,1,"""","""","""","""","""",sampler,189,376942,0.0-6.0-183.0,"""","""","""","""","""","""","""","""","""","""","""","""","2021-08-17 18:03:41",189.180.109.139,"Mozilla/5.0 (Windows NT 10.0; Win64; x64) AppleWebKit/537.36 (KHTML, like Gecko) Chrome/92.0.4515.131 Safari/537.36",WebKit,Chrome,92.0.4515.131,Windows,10.0,5f461dd6c139dd6b46c7596cbd57cd79
222,1,"""","""","""","""","""",sampler,190,376942,0.0-6.0-184.0,"""","""","""","""","""","""","""","""","""","""","""","""","2021-08-17 18:03:41",189.180.109.139,"Mozilla/5.0 (Windows NT 10.0; Win64; x64) AppleWebKit/537.36 (KHTML, like Gecko) Chrome/92.0.4515.131 Safari/537.36",WebKit,Chrome,92.0.4515.131,Windows,10.0,5f461dd6c139dd6b46c7596cbd57cd79
222,1,"""","""","""","""","""",sampler,191,376942,0.0-6.0-185.0,"""","""","""","""","""","""","""","""","""","""","""","""","2021-08-17 18:03:41",189.180.109.139,"Mozilla/5.0 (Windows NT 10.0; Win64; x64) AppleWebKit/537.36 (KHTML, like Gecko) Chrome/92.0.4515.131 Safari/537.36",WebKit,Chrome,92.0.4515.131,Windows,10.0,5f461dd6c139dd6b46c7596cbd57cd79
222,1,"""","""","""","""","""",sampler,192,376942,0.0-6.0-186.0,"""","""","""","""","""","""","""","""","""","""","""","""","2021-08-17 18:03:41",189.180.109.139,"Mozilla/5.0 (Windows NT 10.0; Win64; x64) AppleWebKit/537.36 (KHTML, like Gecko) Chrome/92.0.4515.131 Safari/537.36",WebKit,Chrome,92.0.4515.131,Windows,10.0,5f461dd6c139dd6b46c7596cbd57cd79
222,1,"""","""","""","""","""",sampler,193,376942,0.0-6.0-187.0,"""","""","""","""","""","""","""","""","""","""","""","""","2021-08-17 18:03:41",189.180.109.139,"Mozilla/5.0 (Windows NT 10.0; Win64; x64) AppleWebKit/537.36 (KHTML, like Gecko) Chrome/92.0.4515.131 Safari/537.36",WebKit,Chrome,92.0.4515.131,Windows,10.0,5f461dd6c139dd6b46c7596cbd57cd79
222,1,"""","""","""","""","""",sampler,194,376942,0.0-6.0-188.0,"""","""","""","""","""","""","""","""","""","""","""","""","2021-08-17 18:03:41",189.180.109.139,"Mozilla/5.0 (Windows NT 10.0; Win64; x64) AppleWebKit/537.36 (KHTML, like Gecko) Chrome/92.0.4515.131 Safari/537.36",WebKit,Chrome,92.0.4515.131,Windows,10.0,5f461dd6c139dd6b46c7596cbd57cd79
222,1,"""","""","""","""","""",sampler,195,376942,0.0-6.0-189.0,"""","""","""","""","""","""","""","""","""","""","""","""","2021-08-17 18:03:41",189.180.109.139,"Mozilla/5.0 (Windows NT 10.0; Win64; x64) AppleWebKit/537.36 (KHTML, like Gecko) Chrome/92.0.4515.131 Safari/537.36",WebKit,Chrome,92.0.4515.131,Windows,10.0,5f461dd6c139dd6b46c7596cbd57cd79
222,1,"""","""","""","""","""",sampler,196,376943,0.0-6.0-190.0,"""","""","""","""","""","""","""","""","""","""","""","""","2021-08-17 18:03:41",189.180.109.139,"Mozilla/5.0 (Windows NT 10.0; Win64; x64) AppleWebKit/537.36 (KHTML, like Gecko) Chrome/92.0.4515.131 Safari/537.36",WebKit,Chrome,92.0.4515.131,Windows,10.0,5f461dd6c139dd6b46c7596cbd57cd79
222,1,"""","""","""","""","""",sampler,197,376943,0.0-6.0-191.0,"""","""","""","""","""","""","""","""","""","""","""","""","2021-08-17 18:03:41",189.180.109.139,"Mozilla/5.0 (Windows NT 10.0; Win64; x64) AppleWebKit/537.36 (KHTML, like Gecko) Chrome/92.0.4515.131 Safari/537.36",WebKit,Chrome,92.0.4515.131,Windows,10.0,5f461dd6c139dd6b46c7596cbd57cd79
222,1,"""","""","""","""","""",sampler,198,376943,0.0-6.0-192.0,"""","""","""","""","""","""","""","""","""","""","""","""","2021-08-17 18:03:41",189.180.109.139,"Mozilla/5.0 (Windows NT 10.0; Win64; x64) AppleWebKit/537.36 (KHTML, like Gecko) Chrome/92.0.4515.131 Safari/537.36",WebKit,Chrome,92.0.4515.131,Windows,10.0,5f461dd6c139dd6b46c7596cbd57cd79
222,1,"""","""","""","""","""",sampler,199,376943,0.0-6.0-193.0,"""","""","""","""","""","""","""","""","""","""","""","""","2021-08-17 18:03:41",189.180.109.139,"Mozilla/5.0 (Windows NT 10.0; Win64; x64) AppleWebKit/537.36 (KHTML, like Gecko) Chrome/92.0.4515.131 Safari/537.36",WebKit,Chrome,92.0.4515.131,Windows,10.0,5f461dd6c139dd6b46c7596cbd57cd79
222,1,"""","""","""","""","""",sampler,200,376943,0.0-6.0-194.0,"""","""","""","""","""","""","""","""","""","""","""","""","2021-08-17 18:03:41",189.180.109.139,"Mozilla/5.0 (Windows NT 10.0; Win64; x64) AppleWebKit/537.36 (KHTML, like Gecko) Chrome/92.0.4515.131 Safari/537.36",WebKit,Chrome,92.0.4515.131,Windows,10.0,5f461dd6c139dd6b46c7596cbd57cd79
222,1,"""","""","""","""","""",sampler,201,376943,0.0-6.0-195.0,"""","""","""","""","""","""","""","""","""","""","""","""","2021-08-17 18:03:41",189.180.109.139,"Mozilla/5.0 (Windows NT 10.0; Win64; x64) AppleWebKit/537.36 (KHTML, like Gecko) Chrome/92.0.4515.131 Safari/537.36",WebKit,Chrome,92.0.4515.131,Windows,10.0,5f461dd6c139dd6b46c7596cbd57cd79
222,1,"""","""","""","""","""",sampler,202,376943,0.0-6.0-196.0,"""","""","""","""","""","""","""","""","""","""","""","""","2021-08-17 18:03:41",189.180.109.139,"Mozilla/5.0 (Windows NT 10.0; Win64; x64) AppleWebKit/537.36 (KHTML, like Gecko) Chrome/92.0.4515.131 Safari/537.36",WebKit,Chrome,92.0.4515.131,Windows,10.0,5f461dd6c139dd6b46c7596cbd57cd79
222,1,"""","""","""","""","""",sampler,203,376944,0.0-6.0-197.0,"""","""","""","""","""","""","""","""","""","""","""","""","2021-08-17 18:03:41",189.180.109.139,"Mozilla/5.0 (Windows NT 10.0; Win64; x64) AppleWebKit/537.36 (KHTML, like Gecko) Chrome/92.0.4515.131 Safari/537.36",WebKit,Chrome,92.0.4515.131,Windows,10.0,5f461dd6c139dd6b46c7596cbd57cd79
222,1,"""","""","""","""","""",sampler,204,376944,0.0-6.0-198.0,"""","""","""","""","""","""","""","""","""","""","""","""","2021-08-17 18:03:41",189.180.109.139,"Mozilla/5.0 (Windows NT 10.0; Win64; x64) AppleWebKit/537.36 (KHTML, like Gecko) Chrome/92.0.4515.131 Safari/537.36",WebKit,Chrome,92.0.4515.131,Windows,10.0,5f461dd6c139dd6b46c7596cbd57cd79
222,1,"""","""","""","""","""",sampler,205,376944,0.0-6.0-199.0,"""","""","""","""","""","""","""","""","""","""","""","""","2021-08-17 18:03:41",189.180.109.139,"Mozilla/5.0 (Windows NT 10.0; Win64; x64) AppleWebKit/537.36 (KHTML, like Gecko) Chrome/92.0.4515.131 Safari/537.36",WebKit,Chrome,92.0.4515.131,Windows,10.0,5f461dd6c139dd6b46c7596cbd57cd79
222,1,"""","""","""","""","""",sampler,206,376944,0.0-6.0-200.0,"""","""","""","""","""","""","""","""","""","""","""","""","2021-08-17 18:03:41",189.180.109.139,"Mozilla/5.0 (Windows NT 10.0; Win64; x64) AppleWebKit/537.36 (KHTML, like Gecko) Chrome/92.0.4515.131 Safari/537.36",WebKit,Chrome,92.0.4515.131,Windows,10.0,5f461dd6c139dd6b46c7596cbd57cd79
222,1,"""","""","""","""","""",sampler,207,376944,0.0-6.0-201.0,"""","""","""","""","""","""","""","""","""","""","""","""","2021-08-17 18:03:41",189.180.109.139,"Mozilla/5.0 (Windows NT 10.0; Win64; x64) AppleWebKit/537.36 (KHTML, like Gecko) Chrome/92.0.4515.131 Safari/537.36",WebKit,Chrome,92.0.4515.131,Windows,10.0,5f461dd6c139dd6b46c7596cbd57cd79
222,1,"""","""","""","""","""",sampler,208,376944,0.0-6.0-202.0,"""","""","""","""","""","""","""","""","""","""","""","""","2021-08-17 18:03:41",189.180.109.139,"Mozilla/5.0 (Windows NT 10.0; Win64; x64) AppleWebKit/537.36 (KHTML, like Gecko) Chrome/92.0.4515.131 Safari/537.36",WebKit,Chrome,92.0.4515.131,Windows,10.0,5f461dd6c139dd6b46c7596cbd57cd79
222,1,"""","""","""","""","""",sampler,209,376944,0.0-6.0-203.0,"""","""","""","""","""","""","""","""","""","""","""","""","2021-08-17 18:03:41",189.180.109.139,"Mozilla/5.0 (Windows NT 10.0; Win64; x64) AppleWebKit/537.36 (KHTML, like Gecko) Chrome/92.0.4515.131 Safari/537.36",WebKit,Chrome,92.0.4515.131,Windows,10.0,5f461dd6c139dd6b46c7596cbd57cd79
222,1,"""","""","""","""","""",sampler,210,376944,0.0-6.0-204.0,"""","""","""","""","""","""","""","""","""","""","""","""","2021-08-17 18:03:41",189.180.109.139,"Mozilla/5.0 (Windows NT 10.0; Win64; x64) AppleWebKit/537.36 (KHTML, like Gecko) Chrome/92.0.4515.131 Safari/537.36",WebKit,Chrome,92.0.4515.131,Windows,10.0,5f461dd6c139dd6b46c7596cbd57cd79
222,1,"""","""","""","""","""",sampler,211,376945,0.0-6.0-205.0,"""","""","""","""","""","""","""","""","""","""","""","""","2021-08-17 18:03:41",189.180.109.139,"Mozilla/5.0 (Windows NT 10.0; Win64; x64) AppleWebKit/537.36 (KHTML, like Gecko) Chrome/92.0.4515.131 Safari/537.36",WebKit,Chrome,92.0.4515.131,Windows,10.0,5f461dd6c139dd6b46c7596cbd57cd79
222,1,"""","""","""","""","""",sampler,212,376945,0.0-6.0-206.0,"""","""","""","""","""","""","""","""","""","""","""","""","2021-08-17 18:03:41",189.180.109.139,"Mozilla/5.0 (Windows NT 10.0; Win64; x64) AppleWebKit/537.36 (KHTML, like Gecko) Chrome/92.0.4515.131 Safari/537.36",WebKit,Chrome,92.0.4515.131,Windows,10.0,5f461dd6c139dd6b46c7596cbd57cd79
222,1,"""","""","""","""","""",sampler,213,376945,0.0-6.0-207.0,"""","""","""","""","""","""","""","""","""","""","""","""","2021-08-17 18:03:41",189.180.109.139,"Mozilla/5.0 (Windows NT 10.0; Win64; x64) AppleWebKit/537.36 (KHTML, like Gecko) Chrome/92.0.4515.131 Safari/537.36",WebKit,Chrome,92.0.4515.131,Windows,10.0,5f461dd6c139dd6b46c7596cbd57cd79
222,1,"""","""","""","""","""",sampler,214,376945,0.0-6.0-208.0,"""","""","""","""","""","""","""","""","""","""","""","""","2021-08-17 18:03:41",189.180.109.139,"Mozilla/5.0 (Windows NT 10.0; Win64; x64) AppleWebKit/537.36 (KHTML, like Gecko) Chrome/92.0.4515.131 Safari/537.36",WebKit,Chrome,92.0.4515.131,Windows,10.0,5f461dd6c139dd6b46c7596cbd57cd79
222,1,"""","""","""","""","""",sampler,215,376945,0.0-6.0-209.0,"""","""","""","""","""","""","""","""","""","""","""","""","2021-08-17 18:03:41",189.180.109.139,"Mozilla/5.0 (Windows NT 10.0; Win64; x64) AppleWebKit/537.36 (KHTML, like Gecko) Chrome/92.0.4515.131 Safari/537.36",WebKit,Chrome,92.0.4515.131,Windows,10.0,5f461dd6c139dd6b46c7596cbd57cd79
222,1,"""","""","""","""","""",sampler,216,376945,0.0-6.0-210.0,"""","""","""","""","""","""","""","""","""","""","""","""","2021-08-17 18:03:41",189.180.109.139,"Mozilla/5.0 (Windows NT 10.0; Win64; x64) AppleWebKit/537.36 (KHTML, like Gecko) Chrome/92.0.4515.131 Safari/537.36",WebKit,Chrome,92.0.4515.131,Windows,10.0,5f461dd6c139dd6b46c7596cbd57cd79
222,1,"""","""","""","""","""",sampler,217,376945,0.0-6.0-211.0,"""","""","""","""","""","""","""","""","""","""","""","""","2021-08-17 18:03:41",189.180.109.139,"Mozilla/5.0 (Windows NT 10.0; Win64; x64) AppleWebKit/537.36 (KHTML, like Gecko) Chrome/92.0.4515.131 Safari/537.36",WebKit,Chrome,92.0.4515.131,Windows,10.0,5f461dd6c139dd6b46c7596cbd57cd79
222,1,"""","""","""","""","""",sampler,218,376946,0.0-6.0-212.0,"""","""","""","""","""","""","""","""","""","""","""","""","2021-08-17 18:03:41",189.180.109.139,"Mozilla/5.0 (Windows NT 10.0; Win64; x64) AppleWebKit/537.36 (KHTML, like Gecko) Chrome/92.0.4515.131 Safari/537.36",WebKit,Chrome,92.0.4515.131,Windows,10.0,5f461dd6c139dd6b46c7596cbd57cd79
222,1,"""","""","""","""","""",sampler,219,376946,0.0-6.0-213.0,"""","""","""","""","""","""","""","""","""","""","""","""","2021-08-17 18:03:41",189.180.109.139,"Mozilla/5.0 (Windows NT 10.0; Win64; x64) AppleWebKit/537.36 (KHTML, like Gecko) Chrome/92.0.4515.131 Safari/537.36",WebKit,Chrome,92.0.4515.131,Windows,10.0,5f461dd6c139dd6b46c7596cbd57cd79
222,1,"""","""","""","""","""",sampler,220,376946,0.0-6.0-214.0,"""","""","""","""","""","""","""","""","""","""","""","""","2021-08-17 18:03:41",189.180.109.139,"Mozilla/5.0 (Windows NT 10.0; Win64; x64) AppleWebKit/537.36 (KHTML, like Gecko) Chrome/92.0.4515.131 Safari/537.36",WebKit,Chrome,92.0.4515.131,Windows,10.0,5f461dd6c139dd6b46c7596cbd57cd79
222,1,"""","""","""","""","""",sampler,221,376946,0.0-6.0-215.0,"""","""","""","""","""","""","""","""","""","""","""","""","2021-08-17 18:03:41",189.180.109.139,"Mozilla/5.0 (Windows NT 10.0; Win64; x64) AppleWebKit/537.36 (KHTML, like Gecko) Chrome/92.0.4515.131 Safari/537.36",WebKit,Chrome,92.0.4515.131,Windows,10.0,5f461dd6c139dd6b46c7596cbd57cd79
222,1,"""","""","""","""","""",sampler,222,376947,0.0-6.0-216.0,"""","""","""","""","""","""","""","""","""","""","""","""","2021-08-17 18:03:41",189.180.109.139,"Mozilla/5.0 (Windows NT 10.0; Win64; x64) AppleWebKit/537.36 (KHTML, like Gecko) Chrome/92.0.4515.131 Safari/537.36",WebKit,Chrome,92.0.4515.131,Windows,10.0,5f461dd6c139dd6b46c7596cbd57cd79
222,1,"""","""","""","""","""",sampler,223,376948,0.0-6.0-217.0,"""","""","""","""","""","""","""","""","""","""","""","""","2021-08-17 18:03:41",189.180.109.139,"Mozilla/5.0 (Windows NT 10.0; Win64; x64) AppleWebKit/537.36 (KHTML, like Gecko) Chrome/92.0.4515.131 Safari/537.36",WebKit,Chrome,92.0.4515.131,Windows,10.0,5f461dd6c139dd6b46c7596cbd57cd79
222,1,"""","""","""","""","""",sampler,224,376948,0.0-6.0-218.0,"""","""","""","""","""","""","""","""","""","""","""","""","2021-08-17 18:03:41",189.180.109.139,"Mozilla/5.0 (Windows NT 10.0; Win64; x64) AppleWebKit/537.36 (KHTML, like Gecko) Chrome/92.0.4515.131 Safari/537.36",WebKit,Chrome,92.0.4515.131,Windows,10.0,5f461dd6c139dd6b46c7596cbd57cd79
222,1,"""","""","""","""","""",sampler,225,376948,0.0-6.0-219.0,"""","""","""","""","""","""","""","""","""","""","""","""","2021-08-17 18:03:41",189.180.109.139,"Mozilla/5.0 (Windows NT 10.0; Win64; x64) AppleWebKit/537.36 (KHTML, like Gecko) Chrome/92.0.4515.131 Safari/537.36",WebKit,Chrome,92.0.4515.131,Windows,10.0,5f461dd6c139dd6b46c7596cbd57cd79
222,1,"""","""","""","""","""",sampler,226,376948,0.0-6.0-220.0,"""","""","""","""","""","""","""","""","""","""","""","""","2021-08-17 18:03:41",189.180.109.139,"Mozilla/5.0 (Windows NT 10.0; Win64; x64) AppleWebKit/537.36 (KHTML, like Gecko) Chrome/92.0.4515.131 Safari/537.36",WebKit,Chrome,92.0.4515.131,Windows,10.0,5f461dd6c139dd6b46c7596cbd57cd79
222,1,"""","""","""","""","""",sampler,227,376948,0.0-6.0-221.0,"""","""","""","""","""","""","""","""","""","""","""","""","2021-08-17 18:03:41",189.180.109.139,"Mozilla/5.0 (Windows NT 10.0; Win64; x64) AppleWebKit/537.36 (KHTML, like Gecko) Chrome/92.0.4515.131 Safari/537.36",WebKit,Chrome,92.0.4515.131,Windows,10.0,5f461dd6c139dd6b46c7596cbd57cd79
222,1,"""","""","""","""","""",sampler,228,376948,0.0-6.0-222.0,"""","""","""","""","""","""","""","""","""","""","""","""","2021-08-17 18:03:41",189.180.109.139,"Mozilla/5.0 (Windows NT 10.0; Win64; x64) AppleWebKit/537.36 (KHTML, like Gecko) Chrome/92.0.4515.131 Safari/537.36",WebKit,Chrome,92.0.4515.131,Windows,10.0,5f461dd6c139dd6b46c7596cbd57cd79
222,1,"""","""","""","""","""",sampler,229,376948,0.0-6.0-223.0,"""","""","""","""","""","""","""","""","""","""","""","""","2021-08-17 18:03:41",189.180.109.139,"Mozilla/5.0 (Windows NT 10.0; Win64; x64) AppleWebKit/537.36 (KHTML, like Gecko) Chrome/92.0.4515.131 Safari/537.36",WebKit,Chrome,92.0.4515.131,Windows,10.0,5f461dd6c139dd6b46c7596cbd57cd79
222,1,"""","""","""","""","""",sampler,230,376949,0.0-6.0-224.0,"""","""","""","""","""","""","""","""","""","""","""","""","2021-08-17 18:03:41",189.180.109.139,"Mozilla/5.0 (Windows NT 10.0; Win64; x64) AppleWebKit/537.36 (KHTML, like Gecko) Chrome/92.0.4515.131 Safari/537.36",WebKit,Chrome,92.0.4515.131,Windows,10.0,5f461dd6c139dd6b46c7596cbd57cd79
222,1,"""","""","""","""","""",sampler,231,376949,0.0-6.0-225.0,"""","""","""","""","""","""","""","""","""","""","""","""","2021-08-17 18:03:41",189.180.109.139,"Mozilla/5.0 (Windows NT 10.0; Win64; x64) AppleWebKit/537.36 (KHTML, like Gecko) Chrome/92.0.4515.131 Safari/537.36",WebKit,Chrome,92.0.4515.131,Windows,10.0,5f461dd6c139dd6b46c7596cbd57cd79
222,1,"""","""","""","""","""",sampler,232,376949,0.0-6.0-226.0,"""","""","""","""","""","""","""","""","""","""","""","""","2021-08-17 18:03:41",189.180.109.139,"Mozilla/5.0 (Windows NT 10.0; Win64; x64) AppleWebKit/537.36 (KHTML, like Gecko) Chrome/92.0.4515.131 Safari/537.36",WebKit,Chrome,92.0.4515.131,Windows,10.0,5f461dd6c139dd6b46c7596cbd57cd79
222,1,"""","""","""","""","""",sampler,233,376949,0.0-6.0-227.0,"""","""","""","""","""","""","""","""","""","""","""","""","2021-08-17 18:03:41",189.180.109.139,"Mozilla/5.0 (Windows NT 10.0; Win64; x64) AppleWebKit/537.36 (KHTML, like Gecko) Chrome/92.0.4515.131 Safari/537.36",WebKit,Chrome,92.0.4515.131,Windows,10.0,5f461dd6c139dd6b46c7596cbd57cd79
222,1,"""","""","""","""","""",sampler,234,376949,0.0-6.0-228.0,"""","""","""","""","""","""","""","""","""","""","""","""","2021-08-17 18:03:41",189.180.109.139,"Mozilla/5.0 (Windows NT 10.0; Win64; x64) AppleWebKit/537.36 (KHTML, like Gecko) Chrome/92.0.4515.131 Safari/537.36",WebKit,Chrome,92.0.4515.131,Windows,10.0,5f461dd6c139dd6b46c7596cbd57cd79
222,1,"""","""","""","""","""",sampler,235,376949,0.0-6.0-229.0,"""","""","""","""","""","""","""","""","""","""","""","""","2021-08-17 18:03:41",189.180.109.139,"Mozilla/5.0 (Windows NT 10.0; Win64; x64) AppleWebKit/537.36 (KHTML, like Gecko) Chrome/92.0.4515.131 Safari/537.36",WebKit,Chrome,92.0.4515.131,Windows,10.0,5f461dd6c139dd6b46c7596cbd57cd79
222,1,"""","""","""","""","""",sampler,236,376949,0.0-6.0-230.0,"""","""","""","""","""","""","""","""","""","""","""","""","2021-08-17 18:03:41",189.180.109.139,"Mozilla/5.0 (Windows NT 10.0; Win64; x64) AppleWebKit/537.36 (KHTML, like Gecko) Chrome/92.0.4515.131 Safari/537.36",WebKit,Chrome,92.0.4515.131,Windows,10.0,5f461dd6c139dd6b46c7596cbd57cd79
222,1,"""","""","""","""","""",sampler,237,376950,0.0-6.0-231.0,"""","""","""","""","""","""","""","""","""","""","""","""","2021-08-17 18:03:41",189.180.109.139,"Mozilla/5.0 (Windows NT 10.0; Win64; x64) AppleWebKit/537.36 (KHTML, like Gecko) Chrome/92.0.4515.131 Safari/537.36",WebKit,Chrome,92.0.4515.131,Windows,10.0,5f461dd6c139dd6b46c7596cbd57cd79
222,1,"""","""","""","""","""",sampler,238,376950,0.0-6.0-232.0,"""","""","""","""","""","""","""","""","""","""","""","""","2021-08-17 18:03:41",189.180.109.139,"Mozilla/5.0 (Windows NT 10.0; Win64; x64) AppleWebKit/537.36 (KHTML, like Gecko) Chrome/92.0.4515.131 Safari/537.36",WebKit,Chrome,92.0.4515.131,Windows,10.0,5f461dd6c139dd6b46c7596cbd57cd79
222,1,"""","""","""","""","""",sampler,239,376950,0.0-6.0-233.0,"""","""","""","""","""","""","""","""","""","""","""","""","2021-08-17 18:03:41",189.180.109.139,"Mozilla/5.0 (Windows NT 10.0; Win64; x64) AppleWebKit/537.36 (KHTML, like Gecko) Chrome/92.0.4515.131 Safari/537.36",WebKit,Chrome,92.0.4515.131,Windows,10.0,5f461dd6c139dd6b46c7596cbd57cd79
222,1,"""","""","""","""","""",sampler,240,376950,0.0-6.0-234.0,"""","""","""","""","""","""","""","""","""","""","""","""","2021-08-17 18:03:41",189.180.109.139,"Mozilla/5.0 (Windows NT 10.0; Win64; x64) AppleWebKit/537.36 (KHTML, like Gecko) Chrome/92.0.4515.131 Safari/537.36",WebKit,Chrome,92.0.4515.131,Windows,10.0,5f461dd6c139dd6b46c7596cbd57cd79
222,1,"""","""","""","""","""",sampler,241,376950,0.0-6.0-235.0,"""","""","""","""","""","""","""","""","""","""","""","""","2021-08-17 18:03:41",189.180.109.139,"Mozilla/5.0 (Windows NT 10.0; Win64; x64) AppleWebKit/537.36 (KHTML, like Gecko) Chrome/92.0.4515.131 Safari/537.36",WebKit,Chrome,92.0.4515.131,Windows,10.0,5f461dd6c139dd6b46c7596cbd57cd79
222,1,"""","""","""","""","""",sampler,242,376950,0.0-6.0-236.0,"""","""","""","""","""","""","""","""","""","""","""","""","2021-08-17 18:03:41",189.180.109.139,"Mozilla/5.0 (Windows NT 10.0; Win64; x64) AppleWebKit/537.36 (KHTML, like Gecko) Chrome/92.0.4515.131 Safari/537.36",WebKit,Chrome,92.0.4515.131,Windows,10.0,5f461dd6c139dd6b46c7596cbd57cd79
222,1,"""","""","""","""","""",sampler,243,376950,0.0-6.0-237.0,"""","""","""","""","""","""","""","""","""","""","""","""","2021-08-17 18:03:41",189.180.109.139,"Mozilla/5.0 (Windows NT 10.0; Win64; x64) AppleWebKit/537.36 (KHTML, like Gecko) Chrome/92.0.4515.131 Safari/537.36",WebKit,Chrome,92.0.4515.131,Windows,10.0,5f461dd6c139dd6b46c7596cbd57cd79
222,1,"""","""","""","""","""",sampler,244,376950,0.0-6.0-238.0,"""","""","""","""","""","""","""","""","""","""","""","""","2021-08-17 18:03:41",189.180.109.139,"Mozilla/5.0 (Windows NT 10.0; Win64; x64) AppleWebKit/537.36 (KHTML, like Gecko) Chrome/92.0.4515.131 Safari/537.36",WebKit,Chrome,92.0.4515.131,Windows,10.0,5f461dd6c139dd6b46c7596cbd57cd79
222,1,"""","""","""","""","""",sampler,245,376951,0.0-6.0-239.0,"""","""","""","""","""","""","""","""","""","""","""","""","2021-08-17 18:03:41",189.180.109.139,"Mozilla/5.0 (Windows NT 10.0; Win64; x64) AppleWebKit/537.36 (KHTML, like Gecko) Chrome/92.0.4515.131 Safari/537.36",WebKit,Chrome,92.0.4515.131,Windows,10.0,5f461dd6c139dd6b46c7596cbd57cd79
222,1,"""","""","""","""","""",sampler,246,376951,0.0-6.0-240.0,"""","""","""","""","""","""","""","""","""","""","""","""","2021-08-17 18:03:41",189.180.109.139,"Mozilla/5.0 (Windows NT 10.0; Win64; x64) AppleWebKit/537.36 (KHTML, like Gecko) Chrome/92.0.4515.131 Safari/537.36",WebKit,Chrome,92.0.4515.131,Windows,10.0,5f461dd6c139dd6b46c7596cbd57cd79
222,1,"""","""","""","""","""",sampler,247,376951,0.0-6.0-241.0,"""","""","""","""","""","""","""","""","""","""","""","""","2021-08-17 18:03:41",189.180.109.139,"Mozilla/5.0 (Windows NT 10.0; Win64; x64) AppleWebKit/537.36 (KHTML, like Gecko) Chrome/92.0.4515.131 Safari/537.36",WebKit,Chrome,92.0.4515.131,Windows,10.0,5f461dd6c139dd6b46c7596cbd57cd79
222,1,"""","""","""","""","""",sampler,248,376951,0.0-6.0-242.0,"""","""","""","""","""","""","""","""","""","""","""","""","2021-08-17 18:03:41",189.180.109.139,"Mozilla/5.0 (Windows NT 10.0; Win64; x64) AppleWebKit/537.36 (KHTML, like Gecko) Chrome/92.0.4515.131 Safari/537.36",WebKit,Chrome,92.0.4515.131,Windows,10.0,5f461dd6c139dd6b46c7596cbd57cd79
222,1,"""","""","""","""","""",sampler,249,376951,0.0-6.0-243.0,"""","""","""","""","""","""","""","""","""","""","""","""","2021-08-17 18:03:41",189.180.109.139,"Mozilla/5.0 (Windows NT 10.0; Win64; x64) AppleWebKit/537.36 (KHTML, like Gecko) Chrome/92.0.4515.131 Safari/537.36",WebKit,Chrome,92.0.4515.131,Windows,10.0,5f461dd6c139dd6b46c7596cbd57cd79
222,1,"""","""","""","""","""",sampler,250,376951,0.0-6.0-244.0,"""","""","""","""","""","""","""","""","""","""","""","""","2021-08-17 18:03:41",189.180.109.139,"Mozilla/5.0 (Windows NT 10.0; Win64; x64) AppleWebKit/537.36 (KHTML, like Gecko) Chrome/92.0.4515.131 Safari/537.36",WebKit,Chrome,92.0.4515.131,Windows,10.0,5f461dd6c139dd6b46c7596cbd57cd79
222,1,"""","""","""","""","""",sampler,251,376951,0.0-6.0-245.0,"""","""","""","""","""","""","""","""","""","""","""","""","2021-08-17 18:03:41",189.180.109.139,"Mozilla/5.0 (Windows NT 10.0; Win64; x64) AppleWebKit/537.36 (KHTML, like Gecko) Chrome/92.0.4515.131 Safari/537.36",WebKit,Chrome,92.0.4515.131,Windows,10.0,5f461dd6c139dd6b46c7596cbd57cd79
222,1,"""","""","""","""","""",sampler,252,376952,0.0-6.0-246.0,"""","""","""","""","""","""","""","""","""","""","""","""","2021-08-17 18:03:41",189.180.109.139,"Mozilla/5.0 (Windows NT 10.0; Win64; x64) AppleWebKit/537.36 (KHTML, like Gecko) Chrome/92.0.4515.131 Safari/537.36",WebKit,Chrome,92.0.4515.131,Windows,10.0,5f461dd6c139dd6b46c7596cbd57cd79
222,1,"""","""","""","""","""",sampler,253,376952,0.0-6.0-247.0,"""","""","""","""","""","""","""","""","""","""","""","""","2021-08-17 18:03:41",189.180.109.139,"Mozilla/5.0 (Windows NT 10.0; Win64; x64) AppleWebKit/537.36 (KHTML, like Gecko) Chrome/92.0.4515.131 Safari/537.36",WebKit,Chrome,92.0.4515.131,Windows,10.0,5f461dd6c139dd6b46c7596cbd57cd79
222,1,"""","""","""","""","""",sampler,254,376952,0.0-6.0-248.0,"""","""","""","""","""","""","""","""","""","""","""","""","2021-08-17 18:03:41",189.180.109.139,"Mozilla/5.0 (Windows NT 10.0; Win64; x64) AppleWebKit/537.36 (KHTML, like Gecko) Chrome/92.0.4515.131 Safari/537.36",WebKit,Chrome,92.0.4515.131,Windows,10.0,5f461dd6c139dd6b46c7596cbd57cd79
222,1,"""","""","""","""","""",sampler,255,376952,0.0-6.0-249.0,"""","""","""","""","""","""","""","""","""","""","""","""","2021-08-17 18:03:41",189.180.109.139,"Mozilla/5.0 (Windows NT 10.0; Win64; x64) AppleWebKit/537.36 (KHTML, like Gecko) Chrome/92.0.4515.131 Safari/537.36",WebKit,Chrome,92.0.4515.131,Windows,10.0,5f461dd6c139dd6b46c7596cbd57cd79
222,1,"""","""","""","""","""",sampler,256,376952,0.0-6.0-250.0,"""","""","""","""","""","""","""","""","""","""","""","""","2021-08-17 18:03:41",189.180.109.139,"Mozilla/5.0 (Windows NT 10.0; Win64; x64) AppleWebKit/537.36 (KHTML, like Gecko) Chrome/92.0.4515.131 Safari/537.36",WebKit,Chrome,92.0.4515.131,Windows,10.0,5f461dd6c139dd6b46c7596cbd57cd79
222,1,"""","""","""","""","""",sampler,257,376952,0.0-6.0-251.0,"""","""","""","""","""","""","""","""","""","""","""","""","2021-08-17 18:03:41",189.180.109.139,"Mozilla/5.0 (Windows NT 10.0; Win64; x64) AppleWebKit/537.36 (KHTML, like Gecko) Chrome/92.0.4515.131 Safari/537.36",WebKit,Chrome,92.0.4515.131,Windows,10.0,5f461dd6c139dd6b46c7596cbd57cd79
222,1,"""","""","""","""","""",sampler,258,376952,0.0-6.0-252.0,"""","""","""","""","""","""","""","""","""","""","""","""","2021-08-17 18:03:41",189.180.109.139,"Mozilla/5.0 (Windows NT 10.0; Win64; x64) AppleWebKit/537.36 (KHTML, like Gecko) Chrome/92.0.4515.131 Safari/537.36",WebKit,Chrome,92.0.4515.131,Windows,10.0,5f461dd6c139dd6b46c7596cbd57cd79
222,1,"""","""","""","""","""",sampler,259,376953,0.0-6.0-253.0,"""","""","""","""","""","""","""","""","""","""","""","""","2021-08-17 18:03:41",189.180.109.139,"Mozilla/5.0 (Windows NT 10.0; Win64; x64) AppleWebKit/537.36 (KHTML, like Gecko) Chrome/92.0.4515.131 Safari/537.36",WebKit,Chrome,92.0.4515.131,Windows,10.0,5f461dd6c139dd6b46c7596cbd57cd79
222,1,"""","""","""","""","""",sampler,260,376953,0.0-6.0-254.0,"""","""","""","""","""","""","""","""","""","""","""","""","2021-08-17 18:03:41",189.180.109.139,"Mozilla/5.0 (Windows NT 10.0; Win64; x64) AppleWebKit/537.36 (KHTML, like Gecko) Chrome/92.0.4515.131 Safari/537.36",WebKit,Chrome,92.0.4515.131,Windows,10.0,5f461dd6c139dd6b46c7596cbd57cd79
222,1,"""","""","""","""","""",sampler,261,376953,0.0-6.0-255.0,"""","""","""","""","""","""","""","""","""","""","""","""","2021-08-17 18:03:41",189.180.109.139,"Mozilla/5.0 (Windows NT 10.0; Win64; x64) AppleWebKit/537.36 (KHTML, like Gecko) Chrome/92.0.4515.131 Safari/537.36",WebKit,Chrome,92.0.4515.131,Windows,10.0,5f461dd6c139dd6b46c7596cbd57cd79
222,1,"""","""","""","""","""",sampler,262,376953,0.0-6.0-256.0,"""","""","""","""","""","""","""","""","""","""","""","""","2021-08-17 18:03:41",189.180.109.139,"Mozilla/5.0 (Windows NT 10.0; Win64; x64) AppleWebKit/537.36 (KHTML, like Gecko) Chrome/92.0.4515.131 Safari/537.36",WebKit,Chrome,92.0.4515.131,Windows,10.0,5f461dd6c139dd6b46c7596cbd57cd79
222,1,"""","""","""","""","""",sampler,263,376953,0.0-6.0-257.0,"""","""","""","""","""","""","""","""","""","""","""","""","2021-08-17 18:03:41",189.180.109.139,"Mozilla/5.0 (Windows NT 10.0; Win64; x64) AppleWebKit/537.36 (KHTML, like Gecko) Chrome/92.0.4515.131 Safari/537.36",WebKit,Chrome,92.0.4515.131,Windows,10.0,5f461dd6c139dd6b46c7596cbd57cd79
222,1,"""","""","""","""","""",sampler,264,376953,0.0-6.0-258.0,"""","""","""","""","""","""","""","""","""","""","""","""","2021-08-17 18:03:41",189.180.109.139,"Mozilla/5.0 (Windows NT 10.0; Win64; x64) AppleWebKit/537.36 (KHTML, like Gecko) Chrome/92.0.4515.131 Safari/537.36",WebKit,Chrome,92.0.4515.131,Windows,10.0,5f461dd6c139dd6b46c7596cbd57cd79
222,1,"""","""","""","""","""",sampler,265,376954,0.0-6.0-259.0,"""","""","""","""","""","""","""","""","""","""","""","""","2021-08-17 18:03:41",189.180.109.139,"Mozilla/5.0 (Windows NT 10.0; Win64; x64) AppleWebKit/537.36 (KHTML, like Gecko) Chrome/92.0.4515.131 Safari/537.36",WebKit,Chrome,92.0.4515.131,Windows,10.0,5f461dd6c139dd6b46c7596cbd57cd79
222,1,"""","""","""","""","""",sampler,266,376954,0.0-6.0-260.0,"""","""","""","""","""","""","""","""","""","""","""","""","2021-08-17 18:03:41",189.180.109.139,"Mozilla/5.0 (Windows NT 10.0; Win64; x64) AppleWebKit/537.36 (KHTML, like Gecko) Chrome/92.0.4515.131 Safari/537.36",WebKit,Chrome,92.0.4515.131,Windows,10.0,5f461dd6c139dd6b46c7596cbd57cd79
222,1,"""","""","""","""","""",sampler,267,376954,0.0-6.0-261.0,"""","""","""","""","""","""","""","""","""","""","""","""","2021-08-17 18:03:41",189.180.109.139,"Mozilla/5.0 (Windows NT 10.0; Win64; x64) AppleWebKit/537.36 (KHTML, like Gecko) Chrome/92.0.4515.131 Safari/537.36",WebKit,Chrome,92.0.4515.131,Windows,10.0,5f461dd6c139dd6b46c7596cbd57cd79
222,1,"""","""","""","""","""",sampler,268,376954,0.0-6.0-262.0,"""","""","""","""","""","""","""","""","""","""","""","""","2021-08-17 18:03:41",189.180.109.139,"Mozilla/5.0 (Windows NT 10.0; Win64; x64) AppleWebKit/537.36 (KHTML, like Gecko) Chrome/92.0.4515.131 Safari/537.36",WebKit,Chrome,92.0.4515.131,Windows,10.0,5f461dd6c139dd6b46c7596cbd57cd79
222,1,"""","""","""","""","""",sampler,269,376954,0.0-6.0-263.0,"""","""","""","""","""","""","""","""","""","""","""","""","2021-08-17 18:03:41",189.180.109.139,"Mozilla/5.0 (Windows NT 10.0; Win64; x64) AppleWebKit/537.36 (KHTML, like Gecko) Chrome/92.0.4515.131 Safari/537.36",WebKit,Chrome,92.0.4515.131,Windows,10.0,5f461dd6c139dd6b46c7596cbd57cd79
222,1,"""","""","""","""","""",sampler,270,376954,0.0-6.0-264.0,"""","""","""","""","""","""","""","""","""","""","""","""","2021-08-17 18:03:41",189.180.109.139,"Mozilla/5.0 (Windows NT 10.0; Win64; x64) AppleWebKit/537.36 (KHTML, like Gecko) Chrome/92.0.4515.131 Safari/537.36",WebKit,Chrome,92.0.4515.131,Windows,10.0,5f461dd6c139dd6b46c7596cbd57cd79
222,1,"""","""","""","""","""",sampler,271,376954,0.0-6.0-265.0,"""","""","""","""","""","""","""","""","""","""","""","""","2021-08-17 18:03:41",189.180.109.139,"Mozilla/5.0 (Windows NT 10.0; Win64; x64) AppleWebKit/537.36 (KHTML, like Gecko) Chrome/92.0.4515.131 Safari/537.36",WebKit,Chrome,92.0.4515.131,Windows,10.0,5f461dd6c139dd6b46c7596cbd57cd79
222,1,"""","""","""","""","""",sampler,272,376955,0.0-6.0-266.0,"""","""","""","""","""","""","""","""","""","""","""","""","2021-08-17 18:03:41",189.180.109.139,"Mozilla/5.0 (Windows NT 10.0; Win64; x64) AppleWebKit/537.36 (KHTML, like Gecko) Chrome/92.0.4515.131 Safari/537.36",WebKit,Chrome,92.0.4515.131,Windows,10.0,5f461dd6c139dd6b46c7596cbd57cd79
222,1,"""","""","""","""","""",sampler,273,376955,0.0-6.0-267.0,"""","""","""","""","""","""","""","""","""","""","""","""","2021-08-17 18:03:41",189.180.109.139,"Mozilla/5.0 (Windows NT 10.0; Win64; x64) AppleWebKit/537.36 (KHTML, like Gecko) Chrome/92.0.4515.131 Safari/537.36",WebKit,Chrome,92.0.4515.131,Windows,10.0,5f461dd6c139dd6b46c7596cbd57cd79
222,1,"""","""","""","""","""",sampler,274,376955,0.0-6.0-268.0,"""","""","""","""","""","""","""","""","""","""","""","""","2021-08-17 18:03:41",189.180.109.139,"Mozilla/5.0 (Windows NT 10.0; Win64; x64) AppleWebKit/537.36 (KHTML, like Gecko) Chrome/92.0.4515.131 Safari/537.36",WebKit,Chrome,92.0.4515.131,Windows,10.0,5f461dd6c139dd6b46c7596cbd57cd79
222,1,"""","""","""","""","""",sampler,275,376955,0.0-6.0-269.0,"""","""","""","""","""","""","""","""","""","""","""","""","2021-08-17 18:03:41",189.180.109.139,"Mozilla/5.0 (Windows NT 10.0; Win64; x64) AppleWebKit/537.36 (KHTML, like Gecko) Chrome/92.0.4515.131 Safari/537.36",WebKit,Chrome,92.0.4515.131,Windows,10.0,5f461dd6c139dd6b46c7596cbd57cd79
222,1,"""","""","""","""","""",sampler,276,376955,0.0-6.0-270.0,"""","""","""","""","""","""","""","""","""","""","""","""","2021-08-17 18:03:41",189.180.109.139,"Mozilla/5.0 (Windows NT 10.0; Win64; x64) AppleWebKit/537.36 (KHTML, like Gecko) Chrome/92.0.4515.131 Safari/537.36",WebKit,Chrome,92.0.4515.131,Windows,10.0,5f461dd6c139dd6b46c7596cbd57cd79
222,1,"""","""","""","""","""",sampler,277,376955,0.0-6.0-271.0,"""","""","""","""","""","""","""","""","""","""","""","""","2021-08-17 18:03:41",189.180.109.139,"Mozilla/5.0 (Windows NT 10.0; Win64; x64) AppleWebKit/537.36 (KHTML, like Gecko) Chrome/92.0.4515.131 Safari/537.36",WebKit,Chrome,92.0.4515.131,Windows,10.0,5f461dd6c139dd6b46c7596cbd57cd79
222,1,"""","""","""","""","""",sampler,278,376955,0.0-6.0-272.0,"""","""","""","""","""","""","""","""","""","""","""","""","2021-08-17 18:03:41",189.180.109.139,"Mozilla/5.0 (Windows NT 10.0; Win64; x64) AppleWebKit/537.36 (KHTML, like Gecko) Chrome/92.0.4515.131 Safari/537.36",WebKit,Chrome,92.0.4515.131,Windows,10.0,5f461dd6c139dd6b46c7596cbd57cd79
