run_id,condition,success,timeout,failed_images,failed_audio,failed_video,trial_type,trial_index,time_elapsed,internal_node_id,rt,stimulus,key_press,responses,view_history,correct,image_click,points,sd,points2,total_earn,button_pressed,recorded_at,ip,user_agent,device,browser,browser_version,platform,platform_version,source_code_version
208,1,true,false,"""","""","""",preload,0,292,0.0-0.0,"""","""","""","""","""","""","""","""","""","""","""","""","2021-08-13 21:39:57",94.61.65.159,"Mozilla/5.0 (Windows NT 10.0; Win64; x64) AppleWebKit/537.36 (KHTML, like Gecko) Chrome/92.0.4515.131 Safari/537.36",WebKit,Chrome,92.0.4515.131,Windows,10.0,5f461dd6c139dd6b46c7596cbd57cd79
208,1,"""","""","""","""","""",html-keyboard-response,1,26805,0.0-1.0,26510,"<font size=15>Welcome to our experiment!</font><br><br><br><i> Press <b>space bar</b> to begin.</i>",32,"""","""","""","""","""","""","""","""","""","2021-08-13 21:39:57",94.61.65.159,"Mozilla/5.0 (Windows NT 10.0; Win64; x64) AppleWebKit/537.36 (KHTML, like Gecko) Chrome/92.0.4515.131 Safari/537.36",WebKit,Chrome,92.0.4515.131,Windows,10.0,5f461dd6c139dd6b46c7596cbd57cd79
208,1,"""","""","""","""","""",survey-multi-choice,2,34635,0.0-2.0,7828,"""","""","{""Q0"":""Yes"",""Q1"":""Yes"",""Q2"":""Yes"",""Q3"":""Yes""}","""","""","""","""","""","""","""","""","2021-08-13 21:39:57",94.61.65.159,"Mozilla/5.0 (Windows NT 10.0; Win64; x64) AppleWebKit/537.36 (KHTML, like Gecko) Chrome/92.0.4515.131 Safari/537.36",WebKit,Chrome,92.0.4515.131,Windows,10.0,5f461dd6c139dd6b46c7596cbd57cd79
208,1,"""","""","""","""","""",survey-html-form,3,45561,0.0-3.0,10923.799999998882,"""","""","{""gender"":""female"",""age"":""18"",""hand"":""right"",""mail"":""6112b093393c6ce7986b44fe""}","""","""","""","""","""","""","""","""","2021-08-13 21:39:57",94.61.65.159,"Mozilla/5.0 (Windows NT 10.0; Win64; x64) AppleWebKit/537.36 (KHTML, like Gecko) Chrome/92.0.4515.131 Safari/537.36",WebKit,Chrome,92.0.4515.131,Windows,10.0,5f461dd6c139dd6b46c7596cbd57cd79
208,1,true,"""","""","""","""",fullscreen,4,48516,0.0-4.0,"""","""","""","""","""","""","""","""","""","""","""","""","2021-08-13 21:39:57",94.61.65.159,"Mozilla/5.0 (Windows NT 10.0; Win64; x64) AppleWebKit/537.36 (KHTML, like Gecko) Chrome/92.0.4515.131 Safari/537.36",WebKit,Chrome,92.0.4515.131,Windows,10.0,5f461dd6c139dd6b46c7596cbd57cd79
208,1,"""","""","""","""","""",multikey-instructions,5,63956,0.0-5.0,15438,"""","""","""","[{""page_index"":0,""viewing_time"":1460},{""page_index"":1,""viewing_time"":471},{""page_index"":2,""viewing_time"":2348},{""page_index"":3,""viewing_time"":2618},{""page_index"":4,""viewing_time"":563},{""page_index"":5,""viewing_time"":284},{""page_index"":6,""viewing_time"":240},{""page_index"":7,""viewing_time"":286},{""page_index"":8,""viewing_time"":288},{""page_index"":9,""viewing_time"":2440},{""page_index"":10,""viewing_time"":2088},{""page_index"":11,""viewing_time"":2352}]","""","""","""","""","""","""","""","2021-08-13 21:39:57",94.61.65.159,"Mozilla/5.0 (Windows NT 10.0; Win64; x64) AppleWebKit/537.36 (KHTML, like Gecko) Chrome/92.0.4515.131 Safari/537.36",WebKit,Chrome,92.0.4515.131,Windows,10.0,5f461dd6c139dd6b46c7596cbd57cd79
208,1,"""","""","""","""","""",sampler,6,66929,0.0-6.0-0.0,2568,img/Cyan.png,"""","""","""",false,-1,9.098405142923207,5,"""","""","""","2021-08-13 21:39:57",94.61.65.159,"Mozilla/5.0 (Windows NT 10.0; Win64; x64) AppleWebKit/537.36 (KHTML, like Gecko) Chrome/92.0.4515.131 Safari/537.36",WebKit,Chrome,92.0.4515.131,Windows,10.0,5f461dd6c139dd6b46c7596cbd57cd79
208,1,"""","""","""","""","""",sampler,7,66931,0.0-6.0-1.0,"""","""","""","""","""","""","""","""","""","""","""","""","2021-08-13 21:39:57",94.61.65.159,"Mozilla/5.0 (Windows NT 10.0; Win64; x64) AppleWebKit/537.36 (KHTML, like Gecko) Chrome/92.0.4515.131 Safari/537.36",WebKit,Chrome,92.0.4515.131,Windows,10.0,5f461dd6c139dd6b46c7596cbd57cd79
208,1,"""","""","""","""","""",sampler,8,66931,0.0-6.0-2.0,"""","""","""","""","""","""","""","""","""","""","""","""","2021-08-13 21:39:57",94.61.65.159,"Mozilla/5.0 (Windows NT 10.0; Win64; x64) AppleWebKit/537.36 (KHTML, like Gecko) Chrome/92.0.4515.131 Safari/537.36",WebKit,Chrome,92.0.4515.131,Windows,10.0,5f461dd6c139dd6b46c7596cbd57cd79
208,1,"""","""","""","""","""",sampler,9,66932,0.0-6.0-3.0,"""","""","""","""","""","""","""","""","""","""","""","""","2021-08-13 21:39:57",94.61.65.159,"Mozilla/5.0 (Windows NT 10.0; Win64; x64) AppleWebKit/537.36 (KHTML, like Gecko) Chrome/92.0.4515.131 Safari/537.36",WebKit,Chrome,92.0.4515.131,Windows,10.0,5f461dd6c139dd6b46c7596cbd57cd79
208,1,"""","""","""","""","""",sampler,10,66932,0.0-6.0-4.0,"""","""","""","""","""","""","""","""","""","""","""","""","2021-08-13 21:39:57",94.61.65.159,"Mozilla/5.0 (Windows NT 10.0; Win64; x64) AppleWebKit/537.36 (KHTML, like Gecko) Chrome/92.0.4515.131 Safari/537.36",WebKit,Chrome,92.0.4515.131,Windows,10.0,5f461dd6c139dd6b46c7596cbd57cd79
208,1,"""","""","""","""","""",sampler,11,66932,0.0-6.0-5.0,"""","""","""","""","""","""","""","""","""","""","""","""","2021-08-13 21:39:57",94.61.65.159,"Mozilla/5.0 (Windows NT 10.0; Win64; x64) AppleWebKit/537.36 (KHTML, like Gecko) Chrome/92.0.4515.131 Safari/537.36",WebKit,Chrome,92.0.4515.131,Windows,10.0,5f461dd6c139dd6b46c7596cbd57cd79
208,1,"""","""","""","""","""",sampler,12,66932,0.0-6.0-6.0,"""","""","""","""","""","""","""","""","""","""","""","""","2021-08-13 21:39:57",94.61.65.159,"Mozilla/5.0 (Windows NT 10.0; Win64; x64) AppleWebKit/537.36 (KHTML, like Gecko) Chrome/92.0.4515.131 Safari/537.36",WebKit,Chrome,92.0.4515.131,Windows,10.0,5f461dd6c139dd6b46c7596cbd57cd79
208,1,"""","""","""","""","""",sampler,13,66932,0.0-6.0-7.0,"""","""","""","""","""","""","""","""","""","""","""","""","2021-08-13 21:39:57",94.61.65.159,"Mozilla/5.0 (Windows NT 10.0; Win64; x64) AppleWebKit/537.36 (KHTML, like Gecko) Chrome/92.0.4515.131 Safari/537.36",WebKit,Chrome,92.0.4515.131,Windows,10.0,5f461dd6c139dd6b46c7596cbd57cd79
208,1,"""","""","""","""","""",sampler,14,66932,0.0-6.0-8.0,"""","""","""","""","""","""","""","""","""","""","""","""","2021-08-13 21:39:57",94.61.65.159,"Mozilla/5.0 (Windows NT 10.0; Win64; x64) AppleWebKit/537.36 (KHTML, like Gecko) Chrome/92.0.4515.131 Safari/537.36",WebKit,Chrome,92.0.4515.131,Windows,10.0,5f461dd6c139dd6b46c7596cbd57cd79
208,1,"""","""","""","""","""",sampler,15,66932,0.0-6.0-9.0,"""","""","""","""","""","""","""","""","""","""","""","""","2021-08-13 21:39:57",94.61.65.159,"Mozilla/5.0 (Windows NT 10.0; Win64; x64) AppleWebKit/537.36 (KHTML, like Gecko) Chrome/92.0.4515.131 Safari/537.36",WebKit,Chrome,92.0.4515.131,Windows,10.0,5f461dd6c139dd6b46c7596cbd57cd79
208,1,"""","""","""","""","""",sampler,16,66933,0.0-6.0-10.0,"""","""","""","""","""","""","""","""","""","""","""","""","2021-08-13 21:39:57",94.61.65.159,"Mozilla/5.0 (Windows NT 10.0; Win64; x64) AppleWebKit/537.36 (KHTML, like Gecko) Chrome/92.0.4515.131 Safari/537.36",WebKit,Chrome,92.0.4515.131,Windows,10.0,5f461dd6c139dd6b46c7596cbd57cd79
208,1,"""","""","""","""","""",sampler,17,66933,0.0-6.0-11.0,"""","""","""","""","""","""","""","""","""","""","""","""","2021-08-13 21:39:57",94.61.65.159,"Mozilla/5.0 (Windows NT 10.0; Win64; x64) AppleWebKit/537.36 (KHTML, like Gecko) Chrome/92.0.4515.131 Safari/537.36",WebKit,Chrome,92.0.4515.131,Windows,10.0,5f461dd6c139dd6b46c7596cbd57cd79
208,1,"""","""","""","""","""",sampler,18,66933,0.0-6.0-12.0,"""","""","""","""","""","""","""","""","""","""","""","""","2021-08-13 21:39:57",94.61.65.159,"Mozilla/5.0 (Windows NT 10.0; Win64; x64) AppleWebKit/537.36 (KHTML, like Gecko) Chrome/92.0.4515.131 Safari/537.36",WebKit,Chrome,92.0.4515.131,Windows,10.0,5f461dd6c139dd6b46c7596cbd57cd79
208,1,"""","""","""","""","""",sampler,19,66933,0.0-6.0-13.0,"""","""","""","""","""","""","""","""","""","""","""","""","2021-08-13 21:39:57",94.61.65.159,"Mozilla/5.0 (Windows NT 10.0; Win64; x64) AppleWebKit/537.36 (KHTML, like Gecko) Chrome/92.0.4515.131 Safari/537.36",WebKit,Chrome,92.0.4515.131,Windows,10.0,5f461dd6c139dd6b46c7596cbd57cd79
208,1,"""","""","""","""","""",sampler,20,66933,0.0-6.0-14.0,"""","""","""","""","""","""","""","""","""","""","""","""","2021-08-13 21:39:57",94.61.65.159,"Mozilla/5.0 (Windows NT 10.0; Win64; x64) AppleWebKit/537.36 (KHTML, like Gecko) Chrome/92.0.4515.131 Safari/537.36",WebKit,Chrome,92.0.4515.131,Windows,10.0,5f461dd6c139dd6b46c7596cbd57cd79
208,1,"""","""","""","""","""",sampler,21,66933,0.0-6.0-15.0,"""","""","""","""","""","""","""","""","""","""","""","""","2021-08-13 21:39:57",94.61.65.159,"Mozilla/5.0 (Windows NT 10.0; Win64; x64) AppleWebKit/537.36 (KHTML, like Gecko) Chrome/92.0.4515.131 Safari/537.36",WebKit,Chrome,92.0.4515.131,Windows,10.0,5f461dd6c139dd6b46c7596cbd57cd79
208,1,"""","""","""","""","""",sampler,22,66933,0.0-6.0-16.0,"""","""","""","""","""","""","""","""","""","""","""","""","2021-08-13 21:39:57",94.61.65.159,"Mozilla/5.0 (Windows NT 10.0; Win64; x64) AppleWebKit/537.36 (KHTML, like Gecko) Chrome/92.0.4515.131 Safari/537.36",WebKit,Chrome,92.0.4515.131,Windows,10.0,5f461dd6c139dd6b46c7596cbd57cd79
208,1,"""","""","""","""","""",sampler,23,66933,0.0-6.0-17.0,"""","""","""","""","""","""","""","""","""","""","""","""","2021-08-13 21:39:57",94.61.65.159,"Mozilla/5.0 (Windows NT 10.0; Win64; x64) AppleWebKit/537.36 (KHTML, like Gecko) Chrome/92.0.4515.131 Safari/537.36",WebKit,Chrome,92.0.4515.131,Windows,10.0,5f461dd6c139dd6b46c7596cbd57cd79
208,1,"""","""","""","""","""",sampler,24,66933,0.0-6.0-18.0,"""","""","""","""","""","""","""","""","""","""","""","""","2021-08-13 21:39:57",94.61.65.159,"Mozilla/5.0 (Windows NT 10.0; Win64; x64) AppleWebKit/537.36 (KHTML, like Gecko) Chrome/92.0.4515.131 Safari/537.36",WebKit,Chrome,92.0.4515.131,Windows,10.0,5f461dd6c139dd6b46c7596cbd57cd79
208,1,"""","""","""","""","""",sampler,25,66933,0.0-6.0-19.0,"""","""","""","""","""","""","""","""","""","""","""","""","2021-08-13 21:39:57",94.61.65.159,"Mozilla/5.0 (Windows NT 10.0; Win64; x64) AppleWebKit/537.36 (KHTML, like Gecko) Chrome/92.0.4515.131 Safari/537.36",WebKit,Chrome,92.0.4515.131,Windows,10.0,5f461dd6c139dd6b46c7596cbd57cd79
208,1,"""","""","""","""","""",sampler,26,66934,0.0-6.0-20.0,"""","""","""","""","""","""","""","""","""","""","""","""","2021-08-13 21:39:57",94.61.65.159,"Mozilla/5.0 (Windows NT 10.0; Win64; x64) AppleWebKit/537.36 (KHTML, like Gecko) Chrome/92.0.4515.131 Safari/537.36",WebKit,Chrome,92.0.4515.131,Windows,10.0,5f461dd6c139dd6b46c7596cbd57cd79
208,1,"""","""","""","""","""",sampler,27,66934,0.0-6.0-21.0,"""","""","""","""","""","""","""","""","""","""","""","""","2021-08-13 21:39:57",94.61.65.159,"Mozilla/5.0 (Windows NT 10.0; Win64; x64) AppleWebKit/537.36 (KHTML, like Gecko) Chrome/92.0.4515.131 Safari/537.36",WebKit,Chrome,92.0.4515.131,Windows,10.0,5f461dd6c139dd6b46c7596cbd57cd79
208,1,"""","""","""","""","""",sampler,28,66934,0.0-6.0-22.0,"""","""","""","""","""","""","""","""","""","""","""","""","2021-08-13 21:39:57",94.61.65.159,"Mozilla/5.0 (Windows NT 10.0; Win64; x64) AppleWebKit/537.36 (KHTML, like Gecko) Chrome/92.0.4515.131 Safari/537.36",WebKit,Chrome,92.0.4515.131,Windows,10.0,5f461dd6c139dd6b46c7596cbd57cd79
208,1,"""","""","""","""","""",sampler,29,66934,0.0-6.0-23.0,"""","""","""","""","""","""","""","""","""","""","""","""","2021-08-13 21:39:57",94.61.65.159,"Mozilla/5.0 (Windows NT 10.0; Win64; x64) AppleWebKit/537.36 (KHTML, like Gecko) Chrome/92.0.4515.131 Safari/537.36",WebKit,Chrome,92.0.4515.131,Windows,10.0,5f461dd6c139dd6b46c7596cbd57cd79
208,1,"""","""","""","""","""",sampler,30,66934,0.0-6.0-24.0,"""","""","""","""","""","""","""","""","""","""","""","""","2021-08-13 21:39:57",94.61.65.159,"Mozilla/5.0 (Windows NT 10.0; Win64; x64) AppleWebKit/537.36 (KHTML, like Gecko) Chrome/92.0.4515.131 Safari/537.36",WebKit,Chrome,92.0.4515.131,Windows,10.0,5f461dd6c139dd6b46c7596cbd57cd79
208,1,"""","""","""","""","""",sampler,31,66934,0.0-6.0-25.0,"""","""","""","""","""","""","""","""","""","""","""","""","2021-08-13 21:39:57",94.61.65.159,"Mozilla/5.0 (Windows NT 10.0; Win64; x64) AppleWebKit/537.36 (KHTML, like Gecko) Chrome/92.0.4515.131 Safari/537.36",WebKit,Chrome,92.0.4515.131,Windows,10.0,5f461dd6c139dd6b46c7596cbd57cd79
208,1,"""","""","""","""","""",sampler,32,66934,0.0-6.0-26.0,"""","""","""","""","""","""","""","""","""","""","""","""","2021-08-13 21:39:57",94.61.65.159,"Mozilla/5.0 (Windows NT 10.0; Win64; x64) AppleWebKit/537.36 (KHTML, like Gecko) Chrome/92.0.4515.131 Safari/537.36",WebKit,Chrome,92.0.4515.131,Windows,10.0,5f461dd6c139dd6b46c7596cbd57cd79
208,1,"""","""","""","""","""",sampler,33,66934,0.0-6.0-27.0,"""","""","""","""","""","""","""","""","""","""","""","""","2021-08-13 21:39:57",94.61.65.159,"Mozilla/5.0 (Windows NT 10.0; Win64; x64) AppleWebKit/537.36 (KHTML, like Gecko) Chrome/92.0.4515.131 Safari/537.36",WebKit,Chrome,92.0.4515.131,Windows,10.0,5f461dd6c139dd6b46c7596cbd57cd79
208,1,"""","""","""","""","""",sampler,34,66934,0.0-6.0-28.0,"""","""","""","""","""","""","""","""","""","""","""","""","2021-08-13 21:39:57",94.61.65.159,"Mozilla/5.0 (Windows NT 10.0; Win64; x64) AppleWebKit/537.36 (KHTML, like Gecko) Chrome/92.0.4515.131 Safari/537.36",WebKit,Chrome,92.0.4515.131,Windows,10.0,5f461dd6c139dd6b46c7596cbd57cd79
208,1,"""","""","""","""","""",sampler,35,66935,0.0-6.0-29.0,"""","""","""","""","""","""","""","""","""","""","""","""","2021-08-13 21:39:57",94.61.65.159,"Mozilla/5.0 (Windows NT 10.0; Win64; x64) AppleWebKit/537.36 (KHTML, like Gecko) Chrome/92.0.4515.131 Safari/537.36",WebKit,Chrome,92.0.4515.131,Windows,10.0,5f461dd6c139dd6b46c7596cbd57cd79
208,1,"""","""","""","""","""",sampler,36,66935,0.0-6.0-30.0,"""","""","""","""","""","""","""","""","""","""","""","""","2021-08-13 21:39:57",94.61.65.159,"Mozilla/5.0 (Windows NT 10.0; Win64; x64) AppleWebKit/537.36 (KHTML, like Gecko) Chrome/92.0.4515.131 Safari/537.36",WebKit,Chrome,92.0.4515.131,Windows,10.0,5f461dd6c139dd6b46c7596cbd57cd79
208,1,"""","""","""","""","""",sampler,37,66935,0.0-6.0-31.0,"""","""","""","""","""","""","""","""","""","""","""","""","2021-08-13 21:39:57",94.61.65.159,"Mozilla/5.0 (Windows NT 10.0; Win64; x64) AppleWebKit/537.36 (KHTML, like Gecko) Chrome/92.0.4515.131 Safari/537.36",WebKit,Chrome,92.0.4515.131,Windows,10.0,5f461dd6c139dd6b46c7596cbd57cd79
208,1,"""","""","""","""","""",sampler,38,66935,0.0-6.0-32.0,"""","""","""","""","""","""","""","""","""","""","""","""","2021-08-13 21:39:57",94.61.65.159,"Mozilla/5.0 (Windows NT 10.0; Win64; x64) AppleWebKit/537.36 (KHTML, like Gecko) Chrome/92.0.4515.131 Safari/537.36",WebKit,Chrome,92.0.4515.131,Windows,10.0,5f461dd6c139dd6b46c7596cbd57cd79
208,1,"""","""","""","""","""",sampler,39,66935,0.0-6.0-33.0,"""","""","""","""","""","""","""","""","""","""","""","""","2021-08-13 21:39:57",94.61.65.159,"Mozilla/5.0 (Windows NT 10.0; Win64; x64) AppleWebKit/537.36 (KHTML, like Gecko) Chrome/92.0.4515.131 Safari/537.36",WebKit,Chrome,92.0.4515.131,Windows,10.0,5f461dd6c139dd6b46c7596cbd57cd79
208,1,"""","""","""","""","""",sampler,40,66935,0.0-6.0-34.0,"""","""","""","""","""","""","""","""","""","""","""","""","2021-08-13 21:39:57",94.61.65.159,"Mozilla/5.0 (Windows NT 10.0; Win64; x64) AppleWebKit/537.36 (KHTML, like Gecko) Chrome/92.0.4515.131 Safari/537.36",WebKit,Chrome,92.0.4515.131,Windows,10.0,5f461dd6c139dd6b46c7596cbd57cd79
208,1,"""","""","""","""","""",sampler,41,66935,0.0-6.0-35.0,"""","""","""","""","""","""","""","""","""","""","""","""","2021-08-13 21:39:57",94.61.65.159,"Mozilla/5.0 (Windows NT 10.0; Win64; x64) AppleWebKit/537.36 (KHTML, like Gecko) Chrome/92.0.4515.131 Safari/537.36",WebKit,Chrome,92.0.4515.131,Windows,10.0,5f461dd6c139dd6b46c7596cbd57cd79
208,1,"""","""","""","""","""",sampler,42,66936,0.0-6.0-36.0,"""","""","""","""","""","""","""","""","""","""","""","""","2021-08-13 21:39:57",94.61.65.159,"Mozilla/5.0 (Windows NT 10.0; Win64; x64) AppleWebKit/537.36 (KHTML, like Gecko) Chrome/92.0.4515.131 Safari/537.36",WebKit,Chrome,92.0.4515.131,Windows,10.0,5f461dd6c139dd6b46c7596cbd57cd79
208,1,"""","""","""","""","""",sampler,43,66936,0.0-6.0-37.0,"""","""","""","""","""","""","""","""","""","""","""","""","2021-08-13 21:39:57",94.61.65.159,"Mozilla/5.0 (Windows NT 10.0; Win64; x64) AppleWebKit/537.36 (KHTML, like Gecko) Chrome/92.0.4515.131 Safari/537.36",WebKit,Chrome,92.0.4515.131,Windows,10.0,5f461dd6c139dd6b46c7596cbd57cd79
208,1,"""","""","""","""","""",sampler,44,66936,0.0-6.0-38.0,"""","""","""","""","""","""","""","""","""","""","""","""","2021-08-13 21:39:57",94.61.65.159,"Mozilla/5.0 (Windows NT 10.0; Win64; x64) AppleWebKit/537.36 (KHTML, like Gecko) Chrome/92.0.4515.131 Safari/537.36",WebKit,Chrome,92.0.4515.131,Windows,10.0,5f461dd6c139dd6b46c7596cbd57cd79
208,1,"""","""","""","""","""",sampler,45,66937,0.0-6.0-39.0,"""","""","""","""","""","""","""","""","""","""","""","""","2021-08-13 21:39:57",94.61.65.159,"Mozilla/5.0 (Windows NT 10.0; Win64; x64) AppleWebKit/537.36 (KHTML, like Gecko) Chrome/92.0.4515.131 Safari/537.36",WebKit,Chrome,92.0.4515.131,Windows,10.0,5f461dd6c139dd6b46c7596cbd57cd79
208,1,"""","""","""","""","""",sampler,46,66937,0.0-6.0-40.0,"""","""","""","""","""","""","""","""","""","""","""","""","2021-08-13 21:39:57",94.61.65.159,"Mozilla/5.0 (Windows NT 10.0; Win64; x64) AppleWebKit/537.36 (KHTML, like Gecko) Chrome/92.0.4515.131 Safari/537.36",WebKit,Chrome,92.0.4515.131,Windows,10.0,5f461dd6c139dd6b46c7596cbd57cd79
208,1,"""","""","""","""","""",sampler,47,66937,0.0-6.0-41.0,"""","""","""","""","""","""","""","""","""","""","""","""","2021-08-13 21:39:57",94.61.65.159,"Mozilla/5.0 (Windows NT 10.0; Win64; x64) AppleWebKit/537.36 (KHTML, like Gecko) Chrome/92.0.4515.131 Safari/537.36",WebKit,Chrome,92.0.4515.131,Windows,10.0,5f461dd6c139dd6b46c7596cbd57cd79
208,1,"""","""","""","""","""",sampler,48,66937,0.0-6.0-42.0,"""","""","""","""","""","""","""","""","""","""","""","""","2021-08-13 21:39:57",94.61.65.159,"Mozilla/5.0 (Windows NT 10.0; Win64; x64) AppleWebKit/537.36 (KHTML, like Gecko) Chrome/92.0.4515.131 Safari/537.36",WebKit,Chrome,92.0.4515.131,Windows,10.0,5f461dd6c139dd6b46c7596cbd57cd79
208,1,"""","""","""","""","""",sampler,49,66938,0.0-6.0-43.0,"""","""","""","""","""","""","""","""","""","""","""","""","2021-08-13 21:39:57",94.61.65.159,"Mozilla/5.0 (Windows NT 10.0; Win64; x64) AppleWebKit/537.36 (KHTML, like Gecko) Chrome/92.0.4515.131 Safari/537.36",WebKit,Chrome,92.0.4515.131,Windows,10.0,5f461dd6c139dd6b46c7596cbd57cd79
208,1,"""","""","""","""","""",sampler,50,66938,0.0-6.0-44.0,"""","""","""","""","""","""","""","""","""","""","""","""","2021-08-13 21:39:57",94.61.65.159,"Mozilla/5.0 (Windows NT 10.0; Win64; x64) AppleWebKit/537.36 (KHTML, like Gecko) Chrome/92.0.4515.131 Safari/537.36",WebKit,Chrome,92.0.4515.131,Windows,10.0,5f461dd6c139dd6b46c7596cbd57cd79
208,1,"""","""","""","""","""",sampler,51,66938,0.0-6.0-45.0,"""","""","""","""","""","""","""","""","""","""","""","""","2021-08-13 21:39:57",94.61.65.159,"Mozilla/5.0 (Windows NT 10.0; Win64; x64) AppleWebKit/537.36 (KHTML, like Gecko) Chrome/92.0.4515.131 Safari/537.36",WebKit,Chrome,92.0.4515.131,Windows,10.0,5f461dd6c139dd6b46c7596cbd57cd79
208,1,"""","""","""","""","""",sampler,52,66938,0.0-6.0-46.0,"""","""","""","""","""","""","""","""","""","""","""","""","2021-08-13 21:39:57",94.61.65.159,"Mozilla/5.0 (Windows NT 10.0; Win64; x64) AppleWebKit/537.36 (KHTML, like Gecko) Chrome/92.0.4515.131 Safari/537.36",WebKit,Chrome,92.0.4515.131,Windows,10.0,5f461dd6c139dd6b46c7596cbd57cd79
208,1,"""","""","""","""","""",sampler,53,66938,0.0-6.0-47.0,"""","""","""","""","""","""","""","""","""","""","""","""","2021-08-13 21:39:57",94.61.65.159,"Mozilla/5.0 (Windows NT 10.0; Win64; x64) AppleWebKit/537.36 (KHTML, like Gecko) Chrome/92.0.4515.131 Safari/537.36",WebKit,Chrome,92.0.4515.131,Windows,10.0,5f461dd6c139dd6b46c7596cbd57cd79
208,1,"""","""","""","""","""",sampler,54,66938,0.0-6.0-48.0,"""","""","""","""","""","""","""","""","""","""","""","""","2021-08-13 21:39:57",94.61.65.159,"Mozilla/5.0 (Windows NT 10.0; Win64; x64) AppleWebKit/537.36 (KHTML, like Gecko) Chrome/92.0.4515.131 Safari/537.36",WebKit,Chrome,92.0.4515.131,Windows,10.0,5f461dd6c139dd6b46c7596cbd57cd79
208,1,"""","""","""","""","""",sampler,55,66938,0.0-6.0-49.0,"""","""","""","""","""","""","""","""","""","""","""","""","2021-08-13 21:39:57",94.61.65.159,"Mozilla/5.0 (Windows NT 10.0; Win64; x64) AppleWebKit/537.36 (KHTML, like Gecko) Chrome/92.0.4515.131 Safari/537.36",WebKit,Chrome,92.0.4515.131,Windows,10.0,5f461dd6c139dd6b46c7596cbd57cd79
208,1,"""","""","""","""","""",sampler,56,66938,0.0-6.0-50.0,"""","""","""","""","""","""","""","""","""","""","""","""","2021-08-13 21:39:57",94.61.65.159,"Mozilla/5.0 (Windows NT 10.0; Win64; x64) AppleWebKit/537.36 (KHTML, like Gecko) Chrome/92.0.4515.131 Safari/537.36",WebKit,Chrome,92.0.4515.131,Windows,10.0,5f461dd6c139dd6b46c7596cbd57cd79
208,1,"""","""","""","""","""",sampler,57,66939,0.0-6.0-51.0,"""","""","""","""","""","""","""","""","""","""","""","""","2021-08-13 21:39:57",94.61.65.159,"Mozilla/5.0 (Windows NT 10.0; Win64; x64) AppleWebKit/537.36 (KHTML, like Gecko) Chrome/92.0.4515.131 Safari/537.36",WebKit,Chrome,92.0.4515.131,Windows,10.0,5f461dd6c139dd6b46c7596cbd57cd79
208,1,"""","""","""","""","""",sampler,58,66939,0.0-6.0-52.0,"""","""","""","""","""","""","""","""","""","""","""","""","2021-08-13 21:39:57",94.61.65.159,"Mozilla/5.0 (Windows NT 10.0; Win64; x64) AppleWebKit/537.36 (KHTML, like Gecko) Chrome/92.0.4515.131 Safari/537.36",WebKit,Chrome,92.0.4515.131,Windows,10.0,5f461dd6c139dd6b46c7596cbd57cd79
208,1,"""","""","""","""","""",sampler,59,66939,0.0-6.0-53.0,"""","""","""","""","""","""","""","""","""","""","""","""","2021-08-13 21:39:57",94.61.65.159,"Mozilla/5.0 (Windows NT 10.0; Win64; x64) AppleWebKit/537.36 (KHTML, like Gecko) Chrome/92.0.4515.131 Safari/537.36",WebKit,Chrome,92.0.4515.131,Windows,10.0,5f461dd6c139dd6b46c7596cbd57cd79
208,1,"""","""","""","""","""",sampler,60,66939,0.0-6.0-54.0,"""","""","""","""","""","""","""","""","""","""","""","""","2021-08-13 21:39:57",94.61.65.159,"Mozilla/5.0 (Windows NT 10.0; Win64; x64) AppleWebKit/537.36 (KHTML, like Gecko) Chrome/92.0.4515.131 Safari/537.36",WebKit,Chrome,92.0.4515.131,Windows,10.0,5f461dd6c139dd6b46c7596cbd57cd79
208,1,"""","""","""","""","""",sampler,61,66939,0.0-6.0-55.0,"""","""","""","""","""","""","""","""","""","""","""","""","2021-08-13 21:39:57",94.61.65.159,"Mozilla/5.0 (Windows NT 10.0; Win64; x64) AppleWebKit/537.36 (KHTML, like Gecko) Chrome/92.0.4515.131 Safari/537.36",WebKit,Chrome,92.0.4515.131,Windows,10.0,5f461dd6c139dd6b46c7596cbd57cd79
208,1,"""","""","""","""","""",sampler,62,66939,0.0-6.0-56.0,"""","""","""","""","""","""","""","""","""","""","""","""","2021-08-13 21:39:57",94.61.65.159,"Mozilla/5.0 (Windows NT 10.0; Win64; x64) AppleWebKit/537.36 (KHTML, like Gecko) Chrome/92.0.4515.131 Safari/537.36",WebKit,Chrome,92.0.4515.131,Windows,10.0,5f461dd6c139dd6b46c7596cbd57cd79
208,1,"""","""","""","""","""",sampler,63,66939,0.0-6.0-57.0,"""","""","""","""","""","""","""","""","""","""","""","""","2021-08-13 21:39:57",94.61.65.159,"Mozilla/5.0 (Windows NT 10.0; Win64; x64) AppleWebKit/537.36 (KHTML, like Gecko) Chrome/92.0.4515.131 Safari/537.36",WebKit,Chrome,92.0.4515.131,Windows,10.0,5f461dd6c139dd6b46c7596cbd57cd79
208,1,"""","""","""","""","""",sampler,64,66939,0.0-6.0-58.0,"""","""","""","""","""","""","""","""","""","""","""","""","2021-08-13 21:39:57",94.61.65.159,"Mozilla/5.0 (Windows NT 10.0; Win64; x64) AppleWebKit/537.36 (KHTML, like Gecko) Chrome/92.0.4515.131 Safari/537.36",WebKit,Chrome,92.0.4515.131,Windows,10.0,5f461dd6c139dd6b46c7596cbd57cd79
208,1,"""","""","""","""","""",sampler,65,66939,0.0-6.0-59.0,"""","""","""","""","""","""","""","""","""","""","""","""","2021-08-13 21:39:57",94.61.65.159,"Mozilla/5.0 (Windows NT 10.0; Win64; x64) AppleWebKit/537.36 (KHTML, like Gecko) Chrome/92.0.4515.131 Safari/537.36",WebKit,Chrome,92.0.4515.131,Windows,10.0,5f461dd6c139dd6b46c7596cbd57cd79
208,1,"""","""","""","""","""",sampler,66,66940,0.0-6.0-60.0,"""","""","""","""","""","""","""","""","""","""","""","""","2021-08-13 21:39:57",94.61.65.159,"Mozilla/5.0 (Windows NT 10.0; Win64; x64) AppleWebKit/537.36 (KHTML, like Gecko) Chrome/92.0.4515.131 Safari/537.36",WebKit,Chrome,92.0.4515.131,Windows,10.0,5f461dd6c139dd6b46c7596cbd57cd79
208,1,"""","""","""","""","""",sampler,67,66940,0.0-6.0-61.0,"""","""","""","""","""","""","""","""","""","""","""","""","2021-08-13 21:39:57",94.61.65.159,"Mozilla/5.0 (Windows NT 10.0; Win64; x64) AppleWebKit/537.36 (KHTML, like Gecko) Chrome/92.0.4515.131 Safari/537.36",WebKit,Chrome,92.0.4515.131,Windows,10.0,5f461dd6c139dd6b46c7596cbd57cd79
208,1,"""","""","""","""","""",sampler,68,66940,0.0-6.0-62.0,"""","""","""","""","""","""","""","""","""","""","""","""","2021-08-13 21:39:57",94.61.65.159,"Mozilla/5.0 (Windows NT 10.0; Win64; x64) AppleWebKit/537.36 (KHTML, like Gecko) Chrome/92.0.4515.131 Safari/537.36",WebKit,Chrome,92.0.4515.131,Windows,10.0,5f461dd6c139dd6b46c7596cbd57cd79
208,1,"""","""","""","""","""",sampler,69,66940,0.0-6.0-63.0,"""","""","""","""","""","""","""","""","""","""","""","""","2021-08-13 21:39:57",94.61.65.159,"Mozilla/5.0 (Windows NT 10.0; Win64; x64) AppleWebKit/537.36 (KHTML, like Gecko) Chrome/92.0.4515.131 Safari/537.36",WebKit,Chrome,92.0.4515.131,Windows,10.0,5f461dd6c139dd6b46c7596cbd57cd79
208,1,"""","""","""","""","""",sampler,70,66941,0.0-6.0-64.0,"""","""","""","""","""","""","""","""","""","""","""","""","2021-08-13 21:39:57",94.61.65.159,"Mozilla/5.0 (Windows NT 10.0; Win64; x64) AppleWebKit/537.36 (KHTML, like Gecko) Chrome/92.0.4515.131 Safari/537.36",WebKit,Chrome,92.0.4515.131,Windows,10.0,5f461dd6c139dd6b46c7596cbd57cd79
208,1,"""","""","""","""","""",sampler,71,66941,0.0-6.0-65.0,"""","""","""","""","""","""","""","""","""","""","""","""","2021-08-13 21:39:57",94.61.65.159,"Mozilla/5.0 (Windows NT 10.0; Win64; x64) AppleWebKit/537.36 (KHTML, like Gecko) Chrome/92.0.4515.131 Safari/537.36",WebKit,Chrome,92.0.4515.131,Windows,10.0,5f461dd6c139dd6b46c7596cbd57cd79
208,1,"""","""","""","""","""",sampler,72,66941,0.0-6.0-66.0,"""","""","""","""","""","""","""","""","""","""","""","""","2021-08-13 21:39:57",94.61.65.159,"Mozilla/5.0 (Windows NT 10.0; Win64; x64) AppleWebKit/537.36 (KHTML, like Gecko) Chrome/92.0.4515.131 Safari/537.36",WebKit,Chrome,92.0.4515.131,Windows,10.0,5f461dd6c139dd6b46c7596cbd57cd79
208,1,"""","""","""","""","""",sampler,73,66941,0.0-6.0-67.0,"""","""","""","""","""","""","""","""","""","""","""","""","2021-08-13 21:39:57",94.61.65.159,"Mozilla/5.0 (Windows NT 10.0; Win64; x64) AppleWebKit/537.36 (KHTML, like Gecko) Chrome/92.0.4515.131 Safari/537.36",WebKit,Chrome,92.0.4515.131,Windows,10.0,5f461dd6c139dd6b46c7596cbd57cd79
208,1,"""","""","""","""","""",sampler,74,66941,0.0-6.0-68.0,"""","""","""","""","""","""","""","""","""","""","""","""","2021-08-13 21:39:57",94.61.65.159,"Mozilla/5.0 (Windows NT 10.0; Win64; x64) AppleWebKit/537.36 (KHTML, like Gecko) Chrome/92.0.4515.131 Safari/537.36",WebKit,Chrome,92.0.4515.131,Windows,10.0,5f461dd6c139dd6b46c7596cbd57cd79
208,1,"""","""","""","""","""",sampler,75,66942,0.0-6.0-69.0,"""","""","""","""","""","""","""","""","""","""","""","""","2021-08-13 21:39:57",94.61.65.159,"Mozilla/5.0 (Windows NT 10.0; Win64; x64) AppleWebKit/537.36 (KHTML, like Gecko) Chrome/92.0.4515.131 Safari/537.36",WebKit,Chrome,92.0.4515.131,Windows,10.0,5f461dd6c139dd6b46c7596cbd57cd79
208,1,"""","""","""","""","""",sampler,76,66942,0.0-6.0-70.0,"""","""","""","""","""","""","""","""","""","""","""","""","2021-08-13 21:39:57",94.61.65.159,"Mozilla/5.0 (Windows NT 10.0; Win64; x64) AppleWebKit/537.36 (KHTML, like Gecko) Chrome/92.0.4515.131 Safari/537.36",WebKit,Chrome,92.0.4515.131,Windows,10.0,5f461dd6c139dd6b46c7596cbd57cd79
208,1,"""","""","""","""","""",sampler,77,66942,0.0-6.0-71.0,"""","""","""","""","""","""","""","""","""","""","""","""","2021-08-13 21:39:57",94.61.65.159,"Mozilla/5.0 (Windows NT 10.0; Win64; x64) AppleWebKit/537.36 (KHTML, like Gecko) Chrome/92.0.4515.131 Safari/537.36",WebKit,Chrome,92.0.4515.131,Windows,10.0,5f461dd6c139dd6b46c7596cbd57cd79
208,1,"""","""","""","""","""",sampler,78,66942,0.0-6.0-72.0,"""","""","""","""","""","""","""","""","""","""","""","""","2021-08-13 21:39:57",94.61.65.159,"Mozilla/5.0 (Windows NT 10.0; Win64; x64) AppleWebKit/537.36 (KHTML, like Gecko) Chrome/92.0.4515.131 Safari/537.36",WebKit,Chrome,92.0.4515.131,Windows,10.0,5f461dd6c139dd6b46c7596cbd57cd79
208,1,"""","""","""","""","""",sampler,79,66942,0.0-6.0-73.0,"""","""","""","""","""","""","""","""","""","""","""","""","2021-08-13 21:39:57",94.61.65.159,"Mozilla/5.0 (Windows NT 10.0; Win64; x64) AppleWebKit/537.36 (KHTML, like Gecko) Chrome/92.0.4515.131 Safari/537.36",WebKit,Chrome,92.0.4515.131,Windows,10.0,5f461dd6c139dd6b46c7596cbd57cd79
208,1,"""","""","""","""","""",sampler,80,66943,0.0-6.0-74.0,"""","""","""","""","""","""","""","""","""","""","""","""","2021-08-13 21:39:57",94.61.65.159,"Mozilla/5.0 (Windows NT 10.0; Win64; x64) AppleWebKit/537.36 (KHTML, like Gecko) Chrome/92.0.4515.131 Safari/537.36",WebKit,Chrome,92.0.4515.131,Windows,10.0,5f461dd6c139dd6b46c7596cbd57cd79
208,1,"""","""","""","""","""",sampler,81,66943,0.0-6.0-75.0,"""","""","""","""","""","""","""","""","""","""","""","""","2021-08-13 21:39:57",94.61.65.159,"Mozilla/5.0 (Windows NT 10.0; Win64; x64) AppleWebKit/537.36 (KHTML, like Gecko) Chrome/92.0.4515.131 Safari/537.36",WebKit,Chrome,92.0.4515.131,Windows,10.0,5f461dd6c139dd6b46c7596cbd57cd79
208,1,"""","""","""","""","""",sampler,82,66943,0.0-6.0-76.0,"""","""","""","""","""","""","""","""","""","""","""","""","2021-08-13 21:39:57",94.61.65.159,"Mozilla/5.0 (Windows NT 10.0; Win64; x64) AppleWebKit/537.36 (KHTML, like Gecko) Chrome/92.0.4515.131 Safari/537.36",WebKit,Chrome,92.0.4515.131,Windows,10.0,5f461dd6c139dd6b46c7596cbd57cd79
208,1,"""","""","""","""","""",sampler,83,66943,0.0-6.0-77.0,"""","""","""","""","""","""","""","""","""","""","""","""","2021-08-13 21:39:57",94.61.65.159,"Mozilla/5.0 (Windows NT 10.0; Win64; x64) AppleWebKit/537.36 (KHTML, like Gecko) Chrome/92.0.4515.131 Safari/537.36",WebKit,Chrome,92.0.4515.131,Windows,10.0,5f461dd6c139dd6b46c7596cbd57cd79
208,1,"""","""","""","""","""",sampler,84,66944,0.0-6.0-78.0,"""","""","""","""","""","""","""","""","""","""","""","""","2021-08-13 21:39:57",94.61.65.159,"Mozilla/5.0 (Windows NT 10.0; Win64; x64) AppleWebKit/537.36 (KHTML, like Gecko) Chrome/92.0.4515.131 Safari/537.36",WebKit,Chrome,92.0.4515.131,Windows,10.0,5f461dd6c139dd6b46c7596cbd57cd79
208,1,"""","""","""","""","""",sampler,85,66944,0.0-6.0-79.0,"""","""","""","""","""","""","""","""","""","""","""","""","2021-08-13 21:39:57",94.61.65.159,"Mozilla/5.0 (Windows NT 10.0; Win64; x64) AppleWebKit/537.36 (KHTML, like Gecko) Chrome/92.0.4515.131 Safari/537.36",WebKit,Chrome,92.0.4515.131,Windows,10.0,5f461dd6c139dd6b46c7596cbd57cd79
208,1,"""","""","""","""","""",sampler,86,66944,0.0-6.0-80.0,"""","""","""","""","""","""","""","""","""","""","""","""","2021-08-13 21:39:57",94.61.65.159,"Mozilla/5.0 (Windows NT 10.0; Win64; x64) AppleWebKit/537.36 (KHTML, like Gecko) Chrome/92.0.4515.131 Safari/537.36",WebKit,Chrome,92.0.4515.131,Windows,10.0,5f461dd6c139dd6b46c7596cbd57cd79
208,1,"""","""","""","""","""",sampler,87,66945,0.0-6.0-81.0,"""","""","""","""","""","""","""","""","""","""","""","""","2021-08-13 21:39:57",94.61.65.159,"Mozilla/5.0 (Windows NT 10.0; Win64; x64) AppleWebKit/537.36 (KHTML, like Gecko) Chrome/92.0.4515.131 Safari/537.36",WebKit,Chrome,92.0.4515.131,Windows,10.0,5f461dd6c139dd6b46c7596cbd57cd79
208,1,"""","""","""","""","""",sampler,88,66945,0.0-6.0-82.0,"""","""","""","""","""","""","""","""","""","""","""","""","2021-08-13 21:39:57",94.61.65.159,"Mozilla/5.0 (Windows NT 10.0; Win64; x64) AppleWebKit/537.36 (KHTML, like Gecko) Chrome/92.0.4515.131 Safari/537.36",WebKit,Chrome,92.0.4515.131,Windows,10.0,5f461dd6c139dd6b46c7596cbd57cd79
208,1,"""","""","""","""","""",sampler,89,66945,0.0-6.0-83.0,"""","""","""","""","""","""","""","""","""","""","""","""","2021-08-13 21:39:57",94.61.65.159,"Mozilla/5.0 (Windows NT 10.0; Win64; x64) AppleWebKit/537.36 (KHTML, like Gecko) Chrome/92.0.4515.131 Safari/537.36",WebKit,Chrome,92.0.4515.131,Windows,10.0,5f461dd6c139dd6b46c7596cbd57cd79
208,1,"""","""","""","""","""",sampler,90,66945,0.0-6.0-84.0,"""","""","""","""","""","""","""","""","""","""","""","""","2021-08-13 21:39:57",94.61.65.159,"Mozilla/5.0 (Windows NT 10.0; Win64; x64) AppleWebKit/537.36 (KHTML, like Gecko) Chrome/92.0.4515.131 Safari/537.36",WebKit,Chrome,92.0.4515.131,Windows,10.0,5f461dd6c139dd6b46c7596cbd57cd79
208,1,"""","""","""","""","""",sampler,91,66945,0.0-6.0-85.0,"""","""","""","""","""","""","""","""","""","""","""","""","2021-08-13 21:39:57",94.61.65.159,"Mozilla/5.0 (Windows NT 10.0; Win64; x64) AppleWebKit/537.36 (KHTML, like Gecko) Chrome/92.0.4515.131 Safari/537.36",WebKit,Chrome,92.0.4515.131,Windows,10.0,5f461dd6c139dd6b46c7596cbd57cd79
208,1,"""","""","""","""","""",sampler,92,66945,0.0-6.0-86.0,"""","""","""","""","""","""","""","""","""","""","""","""","2021-08-13 21:39:57",94.61.65.159,"Mozilla/5.0 (Windows NT 10.0; Win64; x64) AppleWebKit/537.36 (KHTML, like Gecko) Chrome/92.0.4515.131 Safari/537.36",WebKit,Chrome,92.0.4515.131,Windows,10.0,5f461dd6c139dd6b46c7596cbd57cd79
208,1,"""","""","""","""","""",sampler,93,66945,0.0-6.0-87.0,"""","""","""","""","""","""","""","""","""","""","""","""","2021-08-13 21:39:57",94.61.65.159,"Mozilla/5.0 (Windows NT 10.0; Win64; x64) AppleWebKit/537.36 (KHTML, like Gecko) Chrome/92.0.4515.131 Safari/537.36",WebKit,Chrome,92.0.4515.131,Windows,10.0,5f461dd6c139dd6b46c7596cbd57cd79
208,1,"""","""","""","""","""",sampler,94,66946,0.0-6.0-88.0,"""","""","""","""","""","""","""","""","""","""","""","""","2021-08-13 21:39:57",94.61.65.159,"Mozilla/5.0 (Windows NT 10.0; Win64; x64) AppleWebKit/537.36 (KHTML, like Gecko) Chrome/92.0.4515.131 Safari/537.36",WebKit,Chrome,92.0.4515.131,Windows,10.0,5f461dd6c139dd6b46c7596cbd57cd79
208,1,"""","""","""","""","""",sampler,95,66946,0.0-6.0-89.0,"""","""","""","""","""","""","""","""","""","""","""","""","2021-08-13 21:39:57",94.61.65.159,"Mozilla/5.0 (Windows NT 10.0; Win64; x64) AppleWebKit/537.36 (KHTML, like Gecko) Chrome/92.0.4515.131 Safari/537.36",WebKit,Chrome,92.0.4515.131,Windows,10.0,5f461dd6c139dd6b46c7596cbd57cd79
208,1,"""","""","""","""","""",sampler,96,66946,0.0-6.0-90.0,"""","""","""","""","""","""","""","""","""","""","""","""","2021-08-13 21:39:57",94.61.65.159,"Mozilla/5.0 (Windows NT 10.0; Win64; x64) AppleWebKit/537.36 (KHTML, like Gecko) Chrome/92.0.4515.131 Safari/537.36",WebKit,Chrome,92.0.4515.131,Windows,10.0,5f461dd6c139dd6b46c7596cbd57cd79
208,1,"""","""","""","""","""",sampler,97,66946,0.0-6.0-91.0,"""","""","""","""","""","""","""","""","""","""","""","""","2021-08-13 21:39:57",94.61.65.159,"Mozilla/5.0 (Windows NT 10.0; Win64; x64) AppleWebKit/537.36 (KHTML, like Gecko) Chrome/92.0.4515.131 Safari/537.36",WebKit,Chrome,92.0.4515.131,Windows,10.0,5f461dd6c139dd6b46c7596cbd57cd79
208,1,"""","""","""","""","""",sampler,98,66946,0.0-6.0-92.0,"""","""","""","""","""","""","""","""","""","""","""","""","2021-08-13 21:39:57",94.61.65.159,"Mozilla/5.0 (Windows NT 10.0; Win64; x64) AppleWebKit/537.36 (KHTML, like Gecko) Chrome/92.0.4515.131 Safari/537.36",WebKit,Chrome,92.0.4515.131,Windows,10.0,5f461dd6c139dd6b46c7596cbd57cd79
208,1,"""","""","""","""","""",sampler,99,66946,0.0-6.0-93.0,"""","""","""","""","""","""","""","""","""","""","""","""","2021-08-13 21:39:57",94.61.65.159,"Mozilla/5.0 (Windows NT 10.0; Win64; x64) AppleWebKit/537.36 (KHTML, like Gecko) Chrome/92.0.4515.131 Safari/537.36",WebKit,Chrome,92.0.4515.131,Windows,10.0,5f461dd6c139dd6b46c7596cbd57cd79
208,1,"""","""","""","""","""",sampler,100,66946,0.0-6.0-94.0,"""","""","""","""","""","""","""","""","""","""","""","""","2021-08-13 21:39:57",94.61.65.159,"Mozilla/5.0 (Windows NT 10.0; Win64; x64) AppleWebKit/537.36 (KHTML, like Gecko) Chrome/92.0.4515.131 Safari/537.36",WebKit,Chrome,92.0.4515.131,Windows,10.0,5f461dd6c139dd6b46c7596cbd57cd79
208,1,"""","""","""","""","""",sampler,101,66946,0.0-6.0-95.0,"""","""","""","""","""","""","""","""","""","""","""","""","2021-08-13 21:39:57",94.61.65.159,"Mozilla/5.0 (Windows NT 10.0; Win64; x64) AppleWebKit/537.36 (KHTML, like Gecko) Chrome/92.0.4515.131 Safari/537.36",WebKit,Chrome,92.0.4515.131,Windows,10.0,5f461dd6c139dd6b46c7596cbd57cd79
208,1,"""","""","""","""","""",sampler,102,66947,0.0-6.0-96.0,"""","""","""","""","""","""","""","""","""","""","""","""","2021-08-13 21:39:57",94.61.65.159,"Mozilla/5.0 (Windows NT 10.0; Win64; x64) AppleWebKit/537.36 (KHTML, like Gecko) Chrome/92.0.4515.131 Safari/537.36",WebKit,Chrome,92.0.4515.131,Windows,10.0,5f461dd6c139dd6b46c7596cbd57cd79
208,1,"""","""","""","""","""",sampler,103,66947,0.0-6.0-97.0,"""","""","""","""","""","""","""","""","""","""","""","""","2021-08-13 21:39:57",94.61.65.159,"Mozilla/5.0 (Windows NT 10.0; Win64; x64) AppleWebKit/537.36 (KHTML, like Gecko) Chrome/92.0.4515.131 Safari/537.36",WebKit,Chrome,92.0.4515.131,Windows,10.0,5f461dd6c139dd6b46c7596cbd57cd79
208,1,"""","""","""","""","""",sampler,104,66947,0.0-6.0-98.0,"""","""","""","""","""","""","""","""","""","""","""","""","2021-08-13 21:39:57",94.61.65.159,"Mozilla/5.0 (Windows NT 10.0; Win64; x64) AppleWebKit/537.36 (KHTML, like Gecko) Chrome/92.0.4515.131 Safari/537.36",WebKit,Chrome,92.0.4515.131,Windows,10.0,5f461dd6c139dd6b46c7596cbd57cd79
208,1,"""","""","""","""","""",sampler,105,66947,0.0-6.0-99.0,"""","""","""","""","""","""","""","""","""","""","""","""","2021-08-13 21:39:57",94.61.65.159,"Mozilla/5.0 (Windows NT 10.0; Win64; x64) AppleWebKit/537.36 (KHTML, like Gecko) Chrome/92.0.4515.131 Safari/537.36",WebKit,Chrome,92.0.4515.131,Windows,10.0,5f461dd6c139dd6b46c7596cbd57cd79
208,1,"""","""","""","""","""",sampler,106,66947,0.0-6.0-100.0,"""","""","""","""","""","""","""","""","""","""","""","""","2021-08-13 21:39:57",94.61.65.159,"Mozilla/5.0 (Windows NT 10.0; Win64; x64) AppleWebKit/537.36 (KHTML, like Gecko) Chrome/92.0.4515.131 Safari/537.36",WebKit,Chrome,92.0.4515.131,Windows,10.0,5f461dd6c139dd6b46c7596cbd57cd79
208,1,"""","""","""","""","""",sampler,107,66947,0.0-6.0-101.0,"""","""","""","""","""","""","""","""","""","""","""","""","2021-08-13 21:39:57",94.61.65.159,"Mozilla/5.0 (Windows NT 10.0; Win64; x64) AppleWebKit/537.36 (KHTML, like Gecko) Chrome/92.0.4515.131 Safari/537.36",WebKit,Chrome,92.0.4515.131,Windows,10.0,5f461dd6c139dd6b46c7596cbd57cd79
208,1,"""","""","""","""","""",sampler,108,66947,0.0-6.0-102.0,"""","""","""","""","""","""","""","""","""","""","""","""","2021-08-13 21:39:57",94.61.65.159,"Mozilla/5.0 (Windows NT 10.0; Win64; x64) AppleWebKit/537.36 (KHTML, like Gecko) Chrome/92.0.4515.131 Safari/537.36",WebKit,Chrome,92.0.4515.131,Windows,10.0,5f461dd6c139dd6b46c7596cbd57cd79
208,1,"""","""","""","""","""",sampler,109,66947,0.0-6.0-103.0,"""","""","""","""","""","""","""","""","""","""","""","""","2021-08-13 21:39:57",94.61.65.159,"Mozilla/5.0 (Windows NT 10.0; Win64; x64) AppleWebKit/537.36 (KHTML, like Gecko) Chrome/92.0.4515.131 Safari/537.36",WebKit,Chrome,92.0.4515.131,Windows,10.0,5f461dd6c139dd6b46c7596cbd57cd79
208,1,"""","""","""","""","""",sampler,110,66948,0.0-6.0-104.0,"""","""","""","""","""","""","""","""","""","""","""","""","2021-08-13 21:39:57",94.61.65.159,"Mozilla/5.0 (Windows NT 10.0; Win64; x64) AppleWebKit/537.36 (KHTML, like Gecko) Chrome/92.0.4515.131 Safari/537.36",WebKit,Chrome,92.0.4515.131,Windows,10.0,5f461dd6c139dd6b46c7596cbd57cd79
208,1,"""","""","""","""","""",sampler,111,66948,0.0-6.0-105.0,"""","""","""","""","""","""","""","""","""","""","""","""","2021-08-13 21:39:57",94.61.65.159,"Mozilla/5.0 (Windows NT 10.0; Win64; x64) AppleWebKit/537.36 (KHTML, like Gecko) Chrome/92.0.4515.131 Safari/537.36",WebKit,Chrome,92.0.4515.131,Windows,10.0,5f461dd6c139dd6b46c7596cbd57cd79
208,1,"""","""","""","""","""",sampler,112,66948,0.0-6.0-106.0,"""","""","""","""","""","""","""","""","""","""","""","""","2021-08-13 21:39:57",94.61.65.159,"Mozilla/5.0 (Windows NT 10.0; Win64; x64) AppleWebKit/537.36 (KHTML, like Gecko) Chrome/92.0.4515.131 Safari/537.36",WebKit,Chrome,92.0.4515.131,Windows,10.0,5f461dd6c139dd6b46c7596cbd57cd79
208,1,"""","""","""","""","""",sampler,113,66948,0.0-6.0-107.0,"""","""","""","""","""","""","""","""","""","""","""","""","2021-08-13 21:39:57",94.61.65.159,"Mozilla/5.0 (Windows NT 10.0; Win64; x64) AppleWebKit/537.36 (KHTML, like Gecko) Chrome/92.0.4515.131 Safari/537.36",WebKit,Chrome,92.0.4515.131,Windows,10.0,5f461dd6c139dd6b46c7596cbd57cd79
208,1,"""","""","""","""","""",sampler,114,66948,0.0-6.0-108.0,"""","""","""","""","""","""","""","""","""","""","""","""","2021-08-13 21:39:57",94.61.65.159,"Mozilla/5.0 (Windows NT 10.0; Win64; x64) AppleWebKit/537.36 (KHTML, like Gecko) Chrome/92.0.4515.131 Safari/537.36",WebKit,Chrome,92.0.4515.131,Windows,10.0,5f461dd6c139dd6b46c7596cbd57cd79
208,1,"""","""","""","""","""",sampler,115,66948,0.0-6.0-109.0,"""","""","""","""","""","""","""","""","""","""","""","""","2021-08-13 21:39:57",94.61.65.159,"Mozilla/5.0 (Windows NT 10.0; Win64; x64) AppleWebKit/537.36 (KHTML, like Gecko) Chrome/92.0.4515.131 Safari/537.36",WebKit,Chrome,92.0.4515.131,Windows,10.0,5f461dd6c139dd6b46c7596cbd57cd79
208,1,"""","""","""","""","""",sampler,116,66948,0.0-6.0-110.0,"""","""","""","""","""","""","""","""","""","""","""","""","2021-08-13 21:39:57",94.61.65.159,"Mozilla/5.0 (Windows NT 10.0; Win64; x64) AppleWebKit/537.36 (KHTML, like Gecko) Chrome/92.0.4515.131 Safari/537.36",WebKit,Chrome,92.0.4515.131,Windows,10.0,5f461dd6c139dd6b46c7596cbd57cd79
208,1,"""","""","""","""","""",sampler,117,66949,0.0-6.0-111.0,"""","""","""","""","""","""","""","""","""","""","""","""","2021-08-13 21:39:57",94.61.65.159,"Mozilla/5.0 (Windows NT 10.0; Win64; x64) AppleWebKit/537.36 (KHTML, like Gecko) Chrome/92.0.4515.131 Safari/537.36",WebKit,Chrome,92.0.4515.131,Windows,10.0,5f461dd6c139dd6b46c7596cbd57cd79
208,1,"""","""","""","""","""",sampler,118,66949,0.0-6.0-112.0,"""","""","""","""","""","""","""","""","""","""","""","""","2021-08-13 21:39:57",94.61.65.159,"Mozilla/5.0 (Windows NT 10.0; Win64; x64) AppleWebKit/537.36 (KHTML, like Gecko) Chrome/92.0.4515.131 Safari/537.36",WebKit,Chrome,92.0.4515.131,Windows,10.0,5f461dd6c139dd6b46c7596cbd57cd79
208,1,"""","""","""","""","""",sampler,119,66949,0.0-6.0-113.0,"""","""","""","""","""","""","""","""","""","""","""","""","2021-08-13 21:39:57",94.61.65.159,"Mozilla/5.0 (Windows NT 10.0; Win64; x64) AppleWebKit/537.36 (KHTML, like Gecko) Chrome/92.0.4515.131 Safari/537.36",WebKit,Chrome,92.0.4515.131,Windows,10.0,5f461dd6c139dd6b46c7596cbd57cd79
208,1,"""","""","""","""","""",sampler,120,66949,0.0-6.0-114.0,"""","""","""","""","""","""","""","""","""","""","""","""","2021-08-13 21:39:57",94.61.65.159,"Mozilla/5.0 (Windows NT 10.0; Win64; x64) AppleWebKit/537.36 (KHTML, like Gecko) Chrome/92.0.4515.131 Safari/537.36",WebKit,Chrome,92.0.4515.131,Windows,10.0,5f461dd6c139dd6b46c7596cbd57cd79
208,1,"""","""","""","""","""",sampler,121,66949,0.0-6.0-115.0,"""","""","""","""","""","""","""","""","""","""","""","""","2021-08-13 21:39:57",94.61.65.159,"Mozilla/5.0 (Windows NT 10.0; Win64; x64) AppleWebKit/537.36 (KHTML, like Gecko) Chrome/92.0.4515.131 Safari/537.36",WebKit,Chrome,92.0.4515.131,Windows,10.0,5f461dd6c139dd6b46c7596cbd57cd79
208,1,"""","""","""","""","""",sampler,122,66949,0.0-6.0-116.0,"""","""","""","""","""","""","""","""","""","""","""","""","2021-08-13 21:39:57",94.61.65.159,"Mozilla/5.0 (Windows NT 10.0; Win64; x64) AppleWebKit/537.36 (KHTML, like Gecko) Chrome/92.0.4515.131 Safari/537.36",WebKit,Chrome,92.0.4515.131,Windows,10.0,5f461dd6c139dd6b46c7596cbd57cd79
208,1,"""","""","""","""","""",sampler,123,66949,0.0-6.0-117.0,"""","""","""","""","""","""","""","""","""","""","""","""","2021-08-13 21:39:57",94.61.65.159,"Mozilla/5.0 (Windows NT 10.0; Win64; x64) AppleWebKit/537.36 (KHTML, like Gecko) Chrome/92.0.4515.131 Safari/537.36",WebKit,Chrome,92.0.4515.131,Windows,10.0,5f461dd6c139dd6b46c7596cbd57cd79
208,1,"""","""","""","""","""",sampler,124,66949,0.0-6.0-118.0,"""","""","""","""","""","""","""","""","""","""","""","""","2021-08-13 21:39:57",94.61.65.159,"Mozilla/5.0 (Windows NT 10.0; Win64; x64) AppleWebKit/537.36 (KHTML, like Gecko) Chrome/92.0.4515.131 Safari/537.36",WebKit,Chrome,92.0.4515.131,Windows,10.0,5f461dd6c139dd6b46c7596cbd57cd79
208,1,"""","""","""","""","""",sampler,125,66950,0.0-6.0-119.0,"""","""","""","""","""","""","""","""","""","""","""","""","2021-08-13 21:39:57",94.61.65.159,"Mozilla/5.0 (Windows NT 10.0; Win64; x64) AppleWebKit/537.36 (KHTML, like Gecko) Chrome/92.0.4515.131 Safari/537.36",WebKit,Chrome,92.0.4515.131,Windows,10.0,5f461dd6c139dd6b46c7596cbd57cd79
208,1,"""","""","""","""","""",sampler,126,66950,0.0-6.0-120.0,"""","""","""","""","""","""","""","""","""","""","""","""","2021-08-13 21:39:57",94.61.65.159,"Mozilla/5.0 (Windows NT 10.0; Win64; x64) AppleWebKit/537.36 (KHTML, like Gecko) Chrome/92.0.4515.131 Safari/537.36",WebKit,Chrome,92.0.4515.131,Windows,10.0,5f461dd6c139dd6b46c7596cbd57cd79
208,1,"""","""","""","""","""",sampler,127,66950,0.0-6.0-121.0,"""","""","""","""","""","""","""","""","""","""","""","""","2021-08-13 21:39:57",94.61.65.159,"Mozilla/5.0 (Windows NT 10.0; Win64; x64) AppleWebKit/537.36 (KHTML, like Gecko) Chrome/92.0.4515.131 Safari/537.36",WebKit,Chrome,92.0.4515.131,Windows,10.0,5f461dd6c139dd6b46c7596cbd57cd79
208,1,"""","""","""","""","""",sampler,128,66950,0.0-6.0-122.0,"""","""","""","""","""","""","""","""","""","""","""","""","2021-08-13 21:39:57",94.61.65.159,"Mozilla/5.0 (Windows NT 10.0; Win64; x64) AppleWebKit/537.36 (KHTML, like Gecko) Chrome/92.0.4515.131 Safari/537.36",WebKit,Chrome,92.0.4515.131,Windows,10.0,5f461dd6c139dd6b46c7596cbd57cd79
208,1,"""","""","""","""","""",sampler,129,66950,0.0-6.0-123.0,"""","""","""","""","""","""","""","""","""","""","""","""","2021-08-13 21:39:57",94.61.65.159,"Mozilla/5.0 (Windows NT 10.0; Win64; x64) AppleWebKit/537.36 (KHTML, like Gecko) Chrome/92.0.4515.131 Safari/537.36",WebKit,Chrome,92.0.4515.131,Windows,10.0,5f461dd6c139dd6b46c7596cbd57cd79
208,1,"""","""","""","""","""",sampler,130,66950,0.0-6.0-124.0,"""","""","""","""","""","""","""","""","""","""","""","""","2021-08-13 21:39:57",94.61.65.159,"Mozilla/5.0 (Windows NT 10.0; Win64; x64) AppleWebKit/537.36 (KHTML, like Gecko) Chrome/92.0.4515.131 Safari/537.36",WebKit,Chrome,92.0.4515.131,Windows,10.0,5f461dd6c139dd6b46c7596cbd57cd79
208,1,"""","""","""","""","""",sampler,131,66950,0.0-6.0-125.0,"""","""","""","""","""","""","""","""","""","""","""","""","2021-08-13 21:39:57",94.61.65.159,"Mozilla/5.0 (Windows NT 10.0; Win64; x64) AppleWebKit/537.36 (KHTML, like Gecko) Chrome/92.0.4515.131 Safari/537.36",WebKit,Chrome,92.0.4515.131,Windows,10.0,5f461dd6c139dd6b46c7596cbd57cd79
208,1,"""","""","""","""","""",sampler,132,66951,0.0-6.0-126.0,"""","""","""","""","""","""","""","""","""","""","""","""","2021-08-13 21:39:57",94.61.65.159,"Mozilla/5.0 (Windows NT 10.0; Win64; x64) AppleWebKit/537.36 (KHTML, like Gecko) Chrome/92.0.4515.131 Safari/537.36",WebKit,Chrome,92.0.4515.131,Windows,10.0,5f461dd6c139dd6b46c7596cbd57cd79
208,1,"""","""","""","""","""",sampler,133,66951,0.0-6.0-127.0,"""","""","""","""","""","""","""","""","""","""","""","""","2021-08-13 21:39:57",94.61.65.159,"Mozilla/5.0 (Windows NT 10.0; Win64; x64) AppleWebKit/537.36 (KHTML, like Gecko) Chrome/92.0.4515.131 Safari/537.36",WebKit,Chrome,92.0.4515.131,Windows,10.0,5f461dd6c139dd6b46c7596cbd57cd79
208,1,"""","""","""","""","""",sampler,134,66951,0.0-6.0-128.0,"""","""","""","""","""","""","""","""","""","""","""","""","2021-08-13 21:39:57",94.61.65.159,"Mozilla/5.0 (Windows NT 10.0; Win64; x64) AppleWebKit/537.36 (KHTML, like Gecko) Chrome/92.0.4515.131 Safari/537.36",WebKit,Chrome,92.0.4515.131,Windows,10.0,5f461dd6c139dd6b46c7596cbd57cd79
208,1,"""","""","""","""","""",sampler,135,66951,0.0-6.0-129.0,"""","""","""","""","""","""","""","""","""","""","""","""","2021-08-13 21:39:57",94.61.65.159,"Mozilla/5.0 (Windows NT 10.0; Win64; x64) AppleWebKit/537.36 (KHTML, like Gecko) Chrome/92.0.4515.131 Safari/537.36",WebKit,Chrome,92.0.4515.131,Windows,10.0,5f461dd6c139dd6b46c7596cbd57cd79
208,1,"""","""","""","""","""",sampler,136,66951,0.0-6.0-130.0,"""","""","""","""","""","""","""","""","""","""","""","""","2021-08-13 21:39:57",94.61.65.159,"Mozilla/5.0 (Windows NT 10.0; Win64; x64) AppleWebKit/537.36 (KHTML, like Gecko) Chrome/92.0.4515.131 Safari/537.36",WebKit,Chrome,92.0.4515.131,Windows,10.0,5f461dd6c139dd6b46c7596cbd57cd79
208,1,"""","""","""","""","""",sampler,137,66951,0.0-6.0-131.0,"""","""","""","""","""","""","""","""","""","""","""","""","2021-08-13 21:39:57",94.61.65.159,"Mozilla/5.0 (Windows NT 10.0; Win64; x64) AppleWebKit/537.36 (KHTML, like Gecko) Chrome/92.0.4515.131 Safari/537.36",WebKit,Chrome,92.0.4515.131,Windows,10.0,5f461dd6c139dd6b46c7596cbd57cd79
208,1,"""","""","""","""","""",sampler,138,66951,0.0-6.0-132.0,"""","""","""","""","""","""","""","""","""","""","""","""","2021-08-13 21:39:57",94.61.65.159,"Mozilla/5.0 (Windows NT 10.0; Win64; x64) AppleWebKit/537.36 (KHTML, like Gecko) Chrome/92.0.4515.131 Safari/537.36",WebKit,Chrome,92.0.4515.131,Windows,10.0,5f461dd6c139dd6b46c7596cbd57cd79
208,1,"""","""","""","""","""",sampler,139,66951,0.0-6.0-133.0,"""","""","""","""","""","""","""","""","""","""","""","""","2021-08-13 21:39:57",94.61.65.159,"Mozilla/5.0 (Windows NT 10.0; Win64; x64) AppleWebKit/537.36 (KHTML, like Gecko) Chrome/92.0.4515.131 Safari/537.36",WebKit,Chrome,92.0.4515.131,Windows,10.0,5f461dd6c139dd6b46c7596cbd57cd79
208,1,"""","""","""","""","""",sampler,140,66951,0.0-6.0-134.0,"""","""","""","""","""","""","""","""","""","""","""","""","2021-08-13 21:39:57",94.61.65.159,"Mozilla/5.0 (Windows NT 10.0; Win64; x64) AppleWebKit/537.36 (KHTML, like Gecko) Chrome/92.0.4515.131 Safari/537.36",WebKit,Chrome,92.0.4515.131,Windows,10.0,5f461dd6c139dd6b46c7596cbd57cd79
208,1,"""","""","""","""","""",sampler,141,66951,0.0-6.0-135.0,"""","""","""","""","""","""","""","""","""","""","""","""","2021-08-13 21:39:57",94.61.65.159,"Mozilla/5.0 (Windows NT 10.0; Win64; x64) AppleWebKit/537.36 (KHTML, like Gecko) Chrome/92.0.4515.131 Safari/537.36",WebKit,Chrome,92.0.4515.131,Windows,10.0,5f461dd6c139dd6b46c7596cbd57cd79
208,1,"""","""","""","""","""",sampler,142,66952,0.0-6.0-136.0,"""","""","""","""","""","""","""","""","""","""","""","""","2021-08-13 21:39:57",94.61.65.159,"Mozilla/5.0 (Windows NT 10.0; Win64; x64) AppleWebKit/537.36 (KHTML, like Gecko) Chrome/92.0.4515.131 Safari/537.36",WebKit,Chrome,92.0.4515.131,Windows,10.0,5f461dd6c139dd6b46c7596cbd57cd79
208,1,"""","""","""","""","""",sampler,143,66952,0.0-6.0-137.0,"""","""","""","""","""","""","""","""","""","""","""","""","2021-08-13 21:39:57",94.61.65.159,"Mozilla/5.0 (Windows NT 10.0; Win64; x64) AppleWebKit/537.36 (KHTML, like Gecko) Chrome/92.0.4515.131 Safari/537.36",WebKit,Chrome,92.0.4515.131,Windows,10.0,5f461dd6c139dd6b46c7596cbd57cd79
208,1,"""","""","""","""","""",sampler,144,66953,0.0-6.0-138.0,"""","""","""","""","""","""","""","""","""","""","""","""","2021-08-13 21:39:57",94.61.65.159,"Mozilla/5.0 (Windows NT 10.0; Win64; x64) AppleWebKit/537.36 (KHTML, like Gecko) Chrome/92.0.4515.131 Safari/537.36",WebKit,Chrome,92.0.4515.131,Windows,10.0,5f461dd6c139dd6b46c7596cbd57cd79
208,1,"""","""","""","""","""",sampler,145,66953,0.0-6.0-139.0,"""","""","""","""","""","""","""","""","""","""","""","""","2021-08-13 21:39:57",94.61.65.159,"Mozilla/5.0 (Windows NT 10.0; Win64; x64) AppleWebKit/537.36 (KHTML, like Gecko) Chrome/92.0.4515.131 Safari/537.36",WebKit,Chrome,92.0.4515.131,Windows,10.0,5f461dd6c139dd6b46c7596cbd57cd79
208,1,"""","""","""","""","""",sampler,146,66953,0.0-6.0-140.0,"""","""","""","""","""","""","""","""","""","""","""","""","2021-08-13 21:39:57",94.61.65.159,"Mozilla/5.0 (Windows NT 10.0; Win64; x64) AppleWebKit/537.36 (KHTML, like Gecko) Chrome/92.0.4515.131 Safari/537.36",WebKit,Chrome,92.0.4515.131,Windows,10.0,5f461dd6c139dd6b46c7596cbd57cd79
208,1,"""","""","""","""","""",sampler,147,66953,0.0-6.0-141.0,"""","""","""","""","""","""","""","""","""","""","""","""","2021-08-13 21:39:57",94.61.65.159,"Mozilla/5.0 (Windows NT 10.0; Win64; x64) AppleWebKit/537.36 (KHTML, like Gecko) Chrome/92.0.4515.131 Safari/537.36",WebKit,Chrome,92.0.4515.131,Windows,10.0,5f461dd6c139dd6b46c7596cbd57cd79
208,1,"""","""","""","""","""",sampler,148,66953,0.0-6.0-142.0,"""","""","""","""","""","""","""","""","""","""","""","""","2021-08-13 21:39:57",94.61.65.159,"Mozilla/5.0 (Windows NT 10.0; Win64; x64) AppleWebKit/537.36 (KHTML, like Gecko) Chrome/92.0.4515.131 Safari/537.36",WebKit,Chrome,92.0.4515.131,Windows,10.0,5f461dd6c139dd6b46c7596cbd57cd79
208,1,"""","""","""","""","""",sampler,149,66953,0.0-6.0-143.0,"""","""","""","""","""","""","""","""","""","""","""","""","2021-08-13 21:39:57",94.61.65.159,"Mozilla/5.0 (Windows NT 10.0; Win64; x64) AppleWebKit/537.36 (KHTML, like Gecko) Chrome/92.0.4515.131 Safari/537.36",WebKit,Chrome,92.0.4515.131,Windows,10.0,5f461dd6c139dd6b46c7596cbd57cd79
208,1,"""","""","""","""","""",sampler,150,66953,0.0-6.0-144.0,"""","""","""","""","""","""","""","""","""","""","""","""","2021-08-13 21:39:57",94.61.65.159,"Mozilla/5.0 (Windows NT 10.0; Win64; x64) AppleWebKit/537.36 (KHTML, like Gecko) Chrome/92.0.4515.131 Safari/537.36",WebKit,Chrome,92.0.4515.131,Windows,10.0,5f461dd6c139dd6b46c7596cbd57cd79
208,1,"""","""","""","""","""",sampler,151,66953,0.0-6.0-145.0,"""","""","""","""","""","""","""","""","""","""","""","""","2021-08-13 21:39:57",94.61.65.159,"Mozilla/5.0 (Windows NT 10.0; Win64; x64) AppleWebKit/537.36 (KHTML, like Gecko) Chrome/92.0.4515.131 Safari/537.36",WebKit,Chrome,92.0.4515.131,Windows,10.0,5f461dd6c139dd6b46c7596cbd57cd79
208,1,"""","""","""","""","""",sampler,152,66953,0.0-6.0-146.0,"""","""","""","""","""","""","""","""","""","""","""","""","2021-08-13 21:39:57",94.61.65.159,"Mozilla/5.0 (Windows NT 10.0; Win64; x64) AppleWebKit/537.36 (KHTML, like Gecko) Chrome/92.0.4515.131 Safari/537.36",WebKit,Chrome,92.0.4515.131,Windows,10.0,5f461dd6c139dd6b46c7596cbd57cd79
208,1,"""","""","""","""","""",sampler,153,66953,0.0-6.0-147.0,"""","""","""","""","""","""","""","""","""","""","""","""","2021-08-13 21:39:57",94.61.65.159,"Mozilla/5.0 (Windows NT 10.0; Win64; x64) AppleWebKit/537.36 (KHTML, like Gecko) Chrome/92.0.4515.131 Safari/537.36",WebKit,Chrome,92.0.4515.131,Windows,10.0,5f461dd6c139dd6b46c7596cbd57cd79
208,1,"""","""","""","""","""",sampler,154,66954,0.0-6.0-148.0,"""","""","""","""","""","""","""","""","""","""","""","""","2021-08-13 21:39:57",94.61.65.159,"Mozilla/5.0 (Windows NT 10.0; Win64; x64) AppleWebKit/537.36 (KHTML, like Gecko) Chrome/92.0.4515.131 Safari/537.36",WebKit,Chrome,92.0.4515.131,Windows,10.0,5f461dd6c139dd6b46c7596cbd57cd79
208,1,"""","""","""","""","""",sampler,155,66954,0.0-6.0-149.0,"""","""","""","""","""","""","""","""","""","""","""","""","2021-08-13 21:39:57",94.61.65.159,"Mozilla/5.0 (Windows NT 10.0; Win64; x64) AppleWebKit/537.36 (KHTML, like Gecko) Chrome/92.0.4515.131 Safari/537.36",WebKit,Chrome,92.0.4515.131,Windows,10.0,5f461dd6c139dd6b46c7596cbd57cd79
208,1,"""","""","""","""","""",sampler,156,66954,0.0-6.0-150.0,"""","""","""","""","""","""","""","""","""","""","""","""","2021-08-13 21:39:57",94.61.65.159,"Mozilla/5.0 (Windows NT 10.0; Win64; x64) AppleWebKit/537.36 (KHTML, like Gecko) Chrome/92.0.4515.131 Safari/537.36",WebKit,Chrome,92.0.4515.131,Windows,10.0,5f461dd6c139dd6b46c7596cbd57cd79
208,1,"""","""","""","""","""",sampler,157,66954,0.0-6.0-151.0,"""","""","""","""","""","""","""","""","""","""","""","""","2021-08-13 21:39:57",94.61.65.159,"Mozilla/5.0 (Windows NT 10.0; Win64; x64) AppleWebKit/537.36 (KHTML, like Gecko) Chrome/92.0.4515.131 Safari/537.36",WebKit,Chrome,92.0.4515.131,Windows,10.0,5f461dd6c139dd6b46c7596cbd57cd79
208,1,"""","""","""","""","""",sampler,158,66954,0.0-6.0-152.0,"""","""","""","""","""","""","""","""","""","""","""","""","2021-08-13 21:39:57",94.61.65.159,"Mozilla/5.0 (Windows NT 10.0; Win64; x64) AppleWebKit/537.36 (KHTML, like Gecko) Chrome/92.0.4515.131 Safari/537.36",WebKit,Chrome,92.0.4515.131,Windows,10.0,5f461dd6c139dd6b46c7596cbd57cd79
208,1,"""","""","""","""","""",sampler,159,66954,0.0-6.0-153.0,"""","""","""","""","""","""","""","""","""","""","""","""","2021-08-13 21:39:57",94.61.65.159,"Mozilla/5.0 (Windows NT 10.0; Win64; x64) AppleWebKit/537.36 (KHTML, like Gecko) Chrome/92.0.4515.131 Safari/537.36",WebKit,Chrome,92.0.4515.131,Windows,10.0,5f461dd6c139dd6b46c7596cbd57cd79
208,1,"""","""","""","""","""",sampler,160,66954,0.0-6.0-154.0,"""","""","""","""","""","""","""","""","""","""","""","""","2021-08-13 21:39:57",94.61.65.159,"Mozilla/5.0 (Windows NT 10.0; Win64; x64) AppleWebKit/537.36 (KHTML, like Gecko) Chrome/92.0.4515.131 Safari/537.36",WebKit,Chrome,92.0.4515.131,Windows,10.0,5f461dd6c139dd6b46c7596cbd57cd79
208,1,"""","""","""","""","""",sampler,161,66954,0.0-6.0-155.0,"""","""","""","""","""","""","""","""","""","""","""","""","2021-08-13 21:39:57",94.61.65.159,"Mozilla/5.0 (Windows NT 10.0; Win64; x64) AppleWebKit/537.36 (KHTML, like Gecko) Chrome/92.0.4515.131 Safari/537.36",WebKit,Chrome,92.0.4515.131,Windows,10.0,5f461dd6c139dd6b46c7596cbd57cd79
208,1,"""","""","""","""","""",sampler,162,66954,0.0-6.0-156.0,"""","""","""","""","""","""","""","""","""","""","""","""","2021-08-13 21:39:57",94.61.65.159,"Mozilla/5.0 (Windows NT 10.0; Win64; x64) AppleWebKit/537.36 (KHTML, like Gecko) Chrome/92.0.4515.131 Safari/537.36",WebKit,Chrome,92.0.4515.131,Windows,10.0,5f461dd6c139dd6b46c7596cbd57cd79
208,1,"""","""","""","""","""",sampler,163,66954,0.0-6.0-157.0,"""","""","""","""","""","""","""","""","""","""","""","""","2021-08-13 21:39:57",94.61.65.159,"Mozilla/5.0 (Windows NT 10.0; Win64; x64) AppleWebKit/537.36 (KHTML, like Gecko) Chrome/92.0.4515.131 Safari/537.36",WebKit,Chrome,92.0.4515.131,Windows,10.0,5f461dd6c139dd6b46c7596cbd57cd79
208,1,"""","""","""","""","""",sampler,164,66955,0.0-6.0-158.0,"""","""","""","""","""","""","""","""","""","""","""","""","2021-08-13 21:39:57",94.61.65.159,"Mozilla/5.0 (Windows NT 10.0; Win64; x64) AppleWebKit/537.36 (KHTML, like Gecko) Chrome/92.0.4515.131 Safari/537.36",WebKit,Chrome,92.0.4515.131,Windows,10.0,5f461dd6c139dd6b46c7596cbd57cd79
208,1,"""","""","""","""","""",sampler,165,66955,0.0-6.0-159.0,"""","""","""","""","""","""","""","""","""","""","""","""","2021-08-13 21:39:57",94.61.65.159,"Mozilla/5.0 (Windows NT 10.0; Win64; x64) AppleWebKit/537.36 (KHTML, like Gecko) Chrome/92.0.4515.131 Safari/537.36",WebKit,Chrome,92.0.4515.131,Windows,10.0,5f461dd6c139dd6b46c7596cbd57cd79
208,1,"""","""","""","""","""",sampler,166,66955,0.0-6.0-160.0,"""","""","""","""","""","""","""","""","""","""","""","""","2021-08-13 21:39:57",94.61.65.159,"Mozilla/5.0 (Windows NT 10.0; Win64; x64) AppleWebKit/537.36 (KHTML, like Gecko) Chrome/92.0.4515.131 Safari/537.36",WebKit,Chrome,92.0.4515.131,Windows,10.0,5f461dd6c139dd6b46c7596cbd57cd79
208,1,"""","""","""","""","""",sampler,167,66955,0.0-6.0-161.0,"""","""","""","""","""","""","""","""","""","""","""","""","2021-08-13 21:39:57",94.61.65.159,"Mozilla/5.0 (Windows NT 10.0; Win64; x64) AppleWebKit/537.36 (KHTML, like Gecko) Chrome/92.0.4515.131 Safari/537.36",WebKit,Chrome,92.0.4515.131,Windows,10.0,5f461dd6c139dd6b46c7596cbd57cd79
208,1,"""","""","""","""","""",sampler,168,66955,0.0-6.0-162.0,"""","""","""","""","""","""","""","""","""","""","""","""","2021-08-13 21:39:57",94.61.65.159,"Mozilla/5.0 (Windows NT 10.0; Win64; x64) AppleWebKit/537.36 (KHTML, like Gecko) Chrome/92.0.4515.131 Safari/537.36",WebKit,Chrome,92.0.4515.131,Windows,10.0,5f461dd6c139dd6b46c7596cbd57cd79
208,1,"""","""","""","""","""",sampler,169,66955,0.0-6.0-163.0,"""","""","""","""","""","""","""","""","""","""","""","""","2021-08-13 21:39:57",94.61.65.159,"Mozilla/5.0 (Windows NT 10.0; Win64; x64) AppleWebKit/537.36 (KHTML, like Gecko) Chrome/92.0.4515.131 Safari/537.36",WebKit,Chrome,92.0.4515.131,Windows,10.0,5f461dd6c139dd6b46c7596cbd57cd79
208,1,"""","""","""","""","""",sampler,170,66955,0.0-6.0-164.0,"""","""","""","""","""","""","""","""","""","""","""","""","2021-08-13 21:39:57",94.61.65.159,"Mozilla/5.0 (Windows NT 10.0; Win64; x64) AppleWebKit/537.36 (KHTML, like Gecko) Chrome/92.0.4515.131 Safari/537.36",WebKit,Chrome,92.0.4515.131,Windows,10.0,5f461dd6c139dd6b46c7596cbd57cd79
208,1,"""","""","""","""","""",sampler,171,66955,0.0-6.0-165.0,"""","""","""","""","""","""","""","""","""","""","""","""","2021-08-13 21:39:57",94.61.65.159,"Mozilla/5.0 (Windows NT 10.0; Win64; x64) AppleWebKit/537.36 (KHTML, like Gecko) Chrome/92.0.4515.131 Safari/537.36",WebKit,Chrome,92.0.4515.131,Windows,10.0,5f461dd6c139dd6b46c7596cbd57cd79
208,1,"""","""","""","""","""",sampler,172,66955,0.0-6.0-166.0,"""","""","""","""","""","""","""","""","""","""","""","""","2021-08-13 21:39:57",94.61.65.159,"Mozilla/5.0 (Windows NT 10.0; Win64; x64) AppleWebKit/537.36 (KHTML, like Gecko) Chrome/92.0.4515.131 Safari/537.36",WebKit,Chrome,92.0.4515.131,Windows,10.0,5f461dd6c139dd6b46c7596cbd57cd79
208,1,"""","""","""","""","""",sampler,173,66955,0.0-6.0-167.0,"""","""","""","""","""","""","""","""","""","""","""","""","2021-08-13 21:39:57",94.61.65.159,"Mozilla/5.0 (Windows NT 10.0; Win64; x64) AppleWebKit/537.36 (KHTML, like Gecko) Chrome/92.0.4515.131 Safari/537.36",WebKit,Chrome,92.0.4515.131,Windows,10.0,5f461dd6c139dd6b46c7596cbd57cd79
208,1,"""","""","""","""","""",sampler,174,66956,0.0-6.0-168.0,"""","""","""","""","""","""","""","""","""","""","""","""","2021-08-13 21:39:57",94.61.65.159,"Mozilla/5.0 (Windows NT 10.0; Win64; x64) AppleWebKit/537.36 (KHTML, like Gecko) Chrome/92.0.4515.131 Safari/537.36",WebKit,Chrome,92.0.4515.131,Windows,10.0,5f461dd6c139dd6b46c7596cbd57cd79
208,1,"""","""","""","""","""",sampler,175,66956,0.0-6.0-169.0,"""","""","""","""","""","""","""","""","""","""","""","""","2021-08-13 21:39:57",94.61.65.159,"Mozilla/5.0 (Windows NT 10.0; Win64; x64) AppleWebKit/537.36 (KHTML, like Gecko) Chrome/92.0.4515.131 Safari/537.36",WebKit,Chrome,92.0.4515.131,Windows,10.0,5f461dd6c139dd6b46c7596cbd57cd79
208,1,"""","""","""","""","""",sampler,176,66956,0.0-6.0-170.0,"""","""","""","""","""","""","""","""","""","""","""","""","2021-08-13 21:39:57",94.61.65.159,"Mozilla/5.0 (Windows NT 10.0; Win64; x64) AppleWebKit/537.36 (KHTML, like Gecko) Chrome/92.0.4515.131 Safari/537.36",WebKit,Chrome,92.0.4515.131,Windows,10.0,5f461dd6c139dd6b46c7596cbd57cd79
208,1,"""","""","""","""","""",sampler,177,66956,0.0-6.0-171.0,"""","""","""","""","""","""","""","""","""","""","""","""","2021-08-13 21:39:57",94.61.65.159,"Mozilla/5.0 (Windows NT 10.0; Win64; x64) AppleWebKit/537.36 (KHTML, like Gecko) Chrome/92.0.4515.131 Safari/537.36",WebKit,Chrome,92.0.4515.131,Windows,10.0,5f461dd6c139dd6b46c7596cbd57cd79
208,1,"""","""","""","""","""",sampler,178,66956,0.0-6.0-172.0,"""","""","""","""","""","""","""","""","""","""","""","""","2021-08-13 21:39:57",94.61.65.159,"Mozilla/5.0 (Windows NT 10.0; Win64; x64) AppleWebKit/537.36 (KHTML, like Gecko) Chrome/92.0.4515.131 Safari/537.36",WebKit,Chrome,92.0.4515.131,Windows,10.0,5f461dd6c139dd6b46c7596cbd57cd79
208,1,"""","""","""","""","""",sampler,179,66956,0.0-6.0-173.0,"""","""","""","""","""","""","""","""","""","""","""","""","2021-08-13 21:39:57",94.61.65.159,"Mozilla/5.0 (Windows NT 10.0; Win64; x64) AppleWebKit/537.36 (KHTML, like Gecko) Chrome/92.0.4515.131 Safari/537.36",WebKit,Chrome,92.0.4515.131,Windows,10.0,5f461dd6c139dd6b46c7596cbd57cd79
208,1,"""","""","""","""","""",sampler,180,66956,0.0-6.0-174.0,"""","""","""","""","""","""","""","""","""","""","""","""","2021-08-13 21:39:57",94.61.65.159,"Mozilla/5.0 (Windows NT 10.0; Win64; x64) AppleWebKit/537.36 (KHTML, like Gecko) Chrome/92.0.4515.131 Safari/537.36",WebKit,Chrome,92.0.4515.131,Windows,10.0,5f461dd6c139dd6b46c7596cbd57cd79
208,1,"""","""","""","""","""",sampler,181,66956,0.0-6.0-175.0,"""","""","""","""","""","""","""","""","""","""","""","""","2021-08-13 21:39:57",94.61.65.159,"Mozilla/5.0 (Windows NT 10.0; Win64; x64) AppleWebKit/537.36 (KHTML, like Gecko) Chrome/92.0.4515.131 Safari/537.36",WebKit,Chrome,92.0.4515.131,Windows,10.0,5f461dd6c139dd6b46c7596cbd57cd79
208,1,"""","""","""","""","""",sampler,182,66956,0.0-6.0-176.0,"""","""","""","""","""","""","""","""","""","""","""","""","2021-08-13 21:39:57",94.61.65.159,"Mozilla/5.0 (Windows NT 10.0; Win64; x64) AppleWebKit/537.36 (KHTML, like Gecko) Chrome/92.0.4515.131 Safari/537.36",WebKit,Chrome,92.0.4515.131,Windows,10.0,5f461dd6c139dd6b46c7596cbd57cd79
208,1,"""","""","""","""","""",sampler,183,66956,0.0-6.0-177.0,"""","""","""","""","""","""","""","""","""","""","""","""","2021-08-13 21:39:57",94.61.65.159,"Mozilla/5.0 (Windows NT 10.0; Win64; x64) AppleWebKit/537.36 (KHTML, like Gecko) Chrome/92.0.4515.131 Safari/537.36",WebKit,Chrome,92.0.4515.131,Windows,10.0,5f461dd6c139dd6b46c7596cbd57cd79
208,1,"""","""","""","""","""",sampler,184,66957,0.0-6.0-178.0,"""","""","""","""","""","""","""","""","""","""","""","""","2021-08-13 21:39:57",94.61.65.159,"Mozilla/5.0 (Windows NT 10.0; Win64; x64) AppleWebKit/537.36 (KHTML, like Gecko) Chrome/92.0.4515.131 Safari/537.36",WebKit,Chrome,92.0.4515.131,Windows,10.0,5f461dd6c139dd6b46c7596cbd57cd79
208,1,"""","""","""","""","""",sampler,185,66957,0.0-6.0-179.0,"""","""","""","""","""","""","""","""","""","""","""","""","2021-08-13 21:39:57",94.61.65.159,"Mozilla/5.0 (Windows NT 10.0; Win64; x64) AppleWebKit/537.36 (KHTML, like Gecko) Chrome/92.0.4515.131 Safari/537.36",WebKit,Chrome,92.0.4515.131,Windows,10.0,5f461dd6c139dd6b46c7596cbd57cd79
208,1,"""","""","""","""","""",sampler,186,66957,0.0-6.0-180.0,"""","""","""","""","""","""","""","""","""","""","""","""","2021-08-13 21:39:57",94.61.65.159,"Mozilla/5.0 (Windows NT 10.0; Win64; x64) AppleWebKit/537.36 (KHTML, like Gecko) Chrome/92.0.4515.131 Safari/537.36",WebKit,Chrome,92.0.4515.131,Windows,10.0,5f461dd6c139dd6b46c7596cbd57cd79
208,1,"""","""","""","""","""",sampler,187,66957,0.0-6.0-181.0,"""","""","""","""","""","""","""","""","""","""","""","""","2021-08-13 21:39:57",94.61.65.159,"Mozilla/5.0 (Windows NT 10.0; Win64; x64) AppleWebKit/537.36 (KHTML, like Gecko) Chrome/92.0.4515.131 Safari/537.36",WebKit,Chrome,92.0.4515.131,Windows,10.0,5f461dd6c139dd6b46c7596cbd57cd79
208,1,"""","""","""","""","""",sampler,188,66957,0.0-6.0-182.0,"""","""","""","""","""","""","""","""","""","""","""","""","2021-08-13 21:39:57",94.61.65.159,"Mozilla/5.0 (Windows NT 10.0; Win64; x64) AppleWebKit/537.36 (KHTML, like Gecko) Chrome/92.0.4515.131 Safari/537.36",WebKit,Chrome,92.0.4515.131,Windows,10.0,5f461dd6c139dd6b46c7596cbd57cd79
208,1,"""","""","""","""","""",sampler,189,66957,0.0-6.0-183.0,"""","""","""","""","""","""","""","""","""","""","""","""","2021-08-13 21:39:57",94.61.65.159,"Mozilla/5.0 (Windows NT 10.0; Win64; x64) AppleWebKit/537.36 (KHTML, like Gecko) Chrome/92.0.4515.131 Safari/537.36",WebKit,Chrome,92.0.4515.131,Windows,10.0,5f461dd6c139dd6b46c7596cbd57cd79
208,1,"""","""","""","""","""",sampler,190,66957,0.0-6.0-184.0,"""","""","""","""","""","""","""","""","""","""","""","""","2021-08-13 21:39:57",94.61.65.159,"Mozilla/5.0 (Windows NT 10.0; Win64; x64) AppleWebKit/537.36 (KHTML, like Gecko) Chrome/92.0.4515.131 Safari/537.36",WebKit,Chrome,92.0.4515.131,Windows,10.0,5f461dd6c139dd6b46c7596cbd57cd79
208,1,"""","""","""","""","""",sampler,191,66957,0.0-6.0-185.0,"""","""","""","""","""","""","""","""","""","""","""","""","2021-08-13 21:39:57",94.61.65.159,"Mozilla/5.0 (Windows NT 10.0; Win64; x64) AppleWebKit/537.36 (KHTML, like Gecko) Chrome/92.0.4515.131 Safari/537.36",WebKit,Chrome,92.0.4515.131,Windows,10.0,5f461dd6c139dd6b46c7596cbd57cd79
208,1,"""","""","""","""","""",sampler,192,66957,0.0-6.0-186.0,"""","""","""","""","""","""","""","""","""","""","""","""","2021-08-13 21:39:57",94.61.65.159,"Mozilla/5.0 (Windows NT 10.0; Win64; x64) AppleWebKit/537.36 (KHTML, like Gecko) Chrome/92.0.4515.131 Safari/537.36",WebKit,Chrome,92.0.4515.131,Windows,10.0,5f461dd6c139dd6b46c7596cbd57cd79
208,1,"""","""","""","""","""",sampler,193,66957,0.0-6.0-187.0,"""","""","""","""","""","""","""","""","""","""","""","""","2021-08-13 21:39:57",94.61.65.159,"Mozilla/5.0 (Windows NT 10.0; Win64; x64) AppleWebKit/537.36 (KHTML, like Gecko) Chrome/92.0.4515.131 Safari/537.36",WebKit,Chrome,92.0.4515.131,Windows,10.0,5f461dd6c139dd6b46c7596cbd57cd79
208,1,"""","""","""","""","""",sampler,194,66958,0.0-6.0-188.0,"""","""","""","""","""","""","""","""","""","""","""","""","2021-08-13 21:39:57",94.61.65.159,"Mozilla/5.0 (Windows NT 10.0; Win64; x64) AppleWebKit/537.36 (KHTML, like Gecko) Chrome/92.0.4515.131 Safari/537.36",WebKit,Chrome,92.0.4515.131,Windows,10.0,5f461dd6c139dd6b46c7596cbd57cd79
208,1,"""","""","""","""","""",sampler,195,66958,0.0-6.0-189.0,"""","""","""","""","""","""","""","""","""","""","""","""","2021-08-13 21:39:57",94.61.65.159,"Mozilla/5.0 (Windows NT 10.0; Win64; x64) AppleWebKit/537.36 (KHTML, like Gecko) Chrome/92.0.4515.131 Safari/537.36",WebKit,Chrome,92.0.4515.131,Windows,10.0,5f461dd6c139dd6b46c7596cbd57cd79
208,1,"""","""","""","""","""",sampler,196,66958,0.0-6.0-190.0,"""","""","""","""","""","""","""","""","""","""","""","""","2021-08-13 21:39:57",94.61.65.159,"Mozilla/5.0 (Windows NT 10.0; Win64; x64) AppleWebKit/537.36 (KHTML, like Gecko) Chrome/92.0.4515.131 Safari/537.36",WebKit,Chrome,92.0.4515.131,Windows,10.0,5f461dd6c139dd6b46c7596cbd57cd79
208,1,"""","""","""","""","""",sampler,197,66958,0.0-6.0-191.0,"""","""","""","""","""","""","""","""","""","""","""","""","2021-08-13 21:39:57",94.61.65.159,"Mozilla/5.0 (Windows NT 10.0; Win64; x64) AppleWebKit/537.36 (KHTML, like Gecko) Chrome/92.0.4515.131 Safari/537.36",WebKit,Chrome,92.0.4515.131,Windows,10.0,5f461dd6c139dd6b46c7596cbd57cd79
208,1,"""","""","""","""","""",sampler,198,66958,0.0-6.0-192.0,"""","""","""","""","""","""","""","""","""","""","""","""","2021-08-13 21:39:57",94.61.65.159,"Mozilla/5.0 (Windows NT 10.0; Win64; x64) AppleWebKit/537.36 (KHTML, like Gecko) Chrome/92.0.4515.131 Safari/537.36",WebKit,Chrome,92.0.4515.131,Windows,10.0,5f461dd6c139dd6b46c7596cbd57cd79
208,1,"""","""","""","""","""",sampler,199,66958,0.0-6.0-193.0,"""","""","""","""","""","""","""","""","""","""","""","""","2021-08-13 21:39:57",94.61.65.159,"Mozilla/5.0 (Windows NT 10.0; Win64; x64) AppleWebKit/537.36 (KHTML, like Gecko) Chrome/92.0.4515.131 Safari/537.36",WebKit,Chrome,92.0.4515.131,Windows,10.0,5f461dd6c139dd6b46c7596cbd57cd79
208,1,"""","""","""","""","""",sampler,200,66958,0.0-6.0-194.0,"""","""","""","""","""","""","""","""","""","""","""","""","2021-08-13 21:39:57",94.61.65.159,"Mozilla/5.0 (Windows NT 10.0; Win64; x64) AppleWebKit/537.36 (KHTML, like Gecko) Chrome/92.0.4515.131 Safari/537.36",WebKit,Chrome,92.0.4515.131,Windows,10.0,5f461dd6c139dd6b46c7596cbd57cd79
208,1,"""","""","""","""","""",sampler,201,66958,0.0-6.0-195.0,"""","""","""","""","""","""","""","""","""","""","""","""","2021-08-13 21:39:57",94.61.65.159,"Mozilla/5.0 (Windows NT 10.0; Win64; x64) AppleWebKit/537.36 (KHTML, like Gecko) Chrome/92.0.4515.131 Safari/537.36",WebKit,Chrome,92.0.4515.131,Windows,10.0,5f461dd6c139dd6b46c7596cbd57cd79
208,1,"""","""","""","""","""",sampler,202,66958,0.0-6.0-196.0,"""","""","""","""","""","""","""","""","""","""","""","""","2021-08-13 21:39:57",94.61.65.159,"Mozilla/5.0 (Windows NT 10.0; Win64; x64) AppleWebKit/537.36 (KHTML, like Gecko) Chrome/92.0.4515.131 Safari/537.36",WebKit,Chrome,92.0.4515.131,Windows,10.0,5f461dd6c139dd6b46c7596cbd57cd79
208,1,"""","""","""","""","""",sampler,203,66958,0.0-6.0-197.0,"""","""","""","""","""","""","""","""","""","""","""","""","2021-08-13 21:39:57",94.61.65.159,"Mozilla/5.0 (Windows NT 10.0; Win64; x64) AppleWebKit/537.36 (KHTML, like Gecko) Chrome/92.0.4515.131 Safari/537.36",WebKit,Chrome,92.0.4515.131,Windows,10.0,5f461dd6c139dd6b46c7596cbd57cd79
208,1,"""","""","""","""","""",sampler,204,66959,0.0-6.0-198.0,"""","""","""","""","""","""","""","""","""","""","""","""","2021-08-13 21:39:57",94.61.65.159,"Mozilla/5.0 (Windows NT 10.0; Win64; x64) AppleWebKit/537.36 (KHTML, like Gecko) Chrome/92.0.4515.131 Safari/537.36",WebKit,Chrome,92.0.4515.131,Windows,10.0,5f461dd6c139dd6b46c7596cbd57cd79
208,1,"""","""","""","""","""",sampler,205,66959,0.0-6.0-199.0,"""","""","""","""","""","""","""","""","""","""","""","""","2021-08-13 21:39:57",94.61.65.159,"Mozilla/5.0 (Windows NT 10.0; Win64; x64) AppleWebKit/537.36 (KHTML, like Gecko) Chrome/92.0.4515.131 Safari/537.36",WebKit,Chrome,92.0.4515.131,Windows,10.0,5f461dd6c139dd6b46c7596cbd57cd79
208,1,"""","""","""","""","""",sampler,206,66959,0.0-6.0-200.0,"""","""","""","""","""","""","""","""","""","""","""","""","2021-08-13 21:39:57",94.61.65.159,"Mozilla/5.0 (Windows NT 10.0; Win64; x64) AppleWebKit/537.36 (KHTML, like Gecko) Chrome/92.0.4515.131 Safari/537.36",WebKit,Chrome,92.0.4515.131,Windows,10.0,5f461dd6c139dd6b46c7596cbd57cd79
208,1,"""","""","""","""","""",sampler,207,66959,0.0-6.0-201.0,"""","""","""","""","""","""","""","""","""","""","""","""","2021-08-13 21:39:57",94.61.65.159,"Mozilla/5.0 (Windows NT 10.0; Win64; x64) AppleWebKit/537.36 (KHTML, like Gecko) Chrome/92.0.4515.131 Safari/537.36",WebKit,Chrome,92.0.4515.131,Windows,10.0,5f461dd6c139dd6b46c7596cbd57cd79
208,1,"""","""","""","""","""",sampler,208,66959,0.0-6.0-202.0,"""","""","""","""","""","""","""","""","""","""","""","""","2021-08-13 21:39:57",94.61.65.159,"Mozilla/5.0 (Windows NT 10.0; Win64; x64) AppleWebKit/537.36 (KHTML, like Gecko) Chrome/92.0.4515.131 Safari/537.36",WebKit,Chrome,92.0.4515.131,Windows,10.0,5f461dd6c139dd6b46c7596cbd57cd79
208,1,"""","""","""","""","""",sampler,209,66959,0.0-6.0-203.0,"""","""","""","""","""","""","""","""","""","""","""","""","2021-08-13 21:39:57",94.61.65.159,"Mozilla/5.0 (Windows NT 10.0; Win64; x64) AppleWebKit/537.36 (KHTML, like Gecko) Chrome/92.0.4515.131 Safari/537.36",WebKit,Chrome,92.0.4515.131,Windows,10.0,5f461dd6c139dd6b46c7596cbd57cd79
208,1,"""","""","""","""","""",sampler,210,66959,0.0-6.0-204.0,"""","""","""","""","""","""","""","""","""","""","""","""","2021-08-13 21:39:57",94.61.65.159,"Mozilla/5.0 (Windows NT 10.0; Win64; x64) AppleWebKit/537.36 (KHTML, like Gecko) Chrome/92.0.4515.131 Safari/537.36",WebKit,Chrome,92.0.4515.131,Windows,10.0,5f461dd6c139dd6b46c7596cbd57cd79
208,1,"""","""","""","""","""",sampler,211,66959,0.0-6.0-205.0,"""","""","""","""","""","""","""","""","""","""","""","""","2021-08-13 21:39:57",94.61.65.159,"Mozilla/5.0 (Windows NT 10.0; Win64; x64) AppleWebKit/537.36 (KHTML, like Gecko) Chrome/92.0.4515.131 Safari/537.36",WebKit,Chrome,92.0.4515.131,Windows,10.0,5f461dd6c139dd6b46c7596cbd57cd79
208,1,"""","""","""","""","""",sampler,212,66959,0.0-6.0-206.0,"""","""","""","""","""","""","""","""","""","""","""","""","2021-08-13 21:39:57",94.61.65.159,"Mozilla/5.0 (Windows NT 10.0; Win64; x64) AppleWebKit/537.36 (KHTML, like Gecko) Chrome/92.0.4515.131 Safari/537.36",WebKit,Chrome,92.0.4515.131,Windows,10.0,5f461dd6c139dd6b46c7596cbd57cd79
208,1,"""","""","""","""","""",sampler,213,66959,0.0-6.0-207.0,"""","""","""","""","""","""","""","""","""","""","""","""","2021-08-13 21:39:57",94.61.65.159,"Mozilla/5.0 (Windows NT 10.0; Win64; x64) AppleWebKit/537.36 (KHTML, like Gecko) Chrome/92.0.4515.131 Safari/537.36",WebKit,Chrome,92.0.4515.131,Windows,10.0,5f461dd6c139dd6b46c7596cbd57cd79
208,1,"""","""","""","""","""",sampler,214,66960,0.0-6.0-208.0,"""","""","""","""","""","""","""","""","""","""","""","""","2021-08-13 21:39:57",94.61.65.159,"Mozilla/5.0 (Windows NT 10.0; Win64; x64) AppleWebKit/537.36 (KHTML, like Gecko) Chrome/92.0.4515.131 Safari/537.36",WebKit,Chrome,92.0.4515.131,Windows,10.0,5f461dd6c139dd6b46c7596cbd57cd79
208,1,"""","""","""","""","""",sampler,215,66960,0.0-6.0-209.0,"""","""","""","""","""","""","""","""","""","""","""","""","2021-08-13 21:39:57",94.61.65.159,"Mozilla/5.0 (Windows NT 10.0; Win64; x64) AppleWebKit/537.36 (KHTML, like Gecko) Chrome/92.0.4515.131 Safari/537.36",WebKit,Chrome,92.0.4515.131,Windows,10.0,5f461dd6c139dd6b46c7596cbd57cd79
208,1,"""","""","""","""","""",sampler,216,66960,0.0-6.0-210.0,"""","""","""","""","""","""","""","""","""","""","""","""","2021-08-13 21:39:57",94.61.65.159,"Mozilla/5.0 (Windows NT 10.0; Win64; x64) AppleWebKit/537.36 (KHTML, like Gecko) Chrome/92.0.4515.131 Safari/537.36",WebKit,Chrome,92.0.4515.131,Windows,10.0,5f461dd6c139dd6b46c7596cbd57cd79
208,1,"""","""","""","""","""",sampler,217,66960,0.0-6.0-211.0,"""","""","""","""","""","""","""","""","""","""","""","""","2021-08-13 21:39:57",94.61.65.159,"Mozilla/5.0 (Windows NT 10.0; Win64; x64) AppleWebKit/537.36 (KHTML, like Gecko) Chrome/92.0.4515.131 Safari/537.36",WebKit,Chrome,92.0.4515.131,Windows,10.0,5f461dd6c139dd6b46c7596cbd57cd79
208,1,"""","""","""","""","""",sampler,218,66960,0.0-6.0-212.0,"""","""","""","""","""","""","""","""","""","""","""","""","2021-08-13 21:39:57",94.61.65.159,"Mozilla/5.0 (Windows NT 10.0; Win64; x64) AppleWebKit/537.36 (KHTML, like Gecko) Chrome/92.0.4515.131 Safari/537.36",WebKit,Chrome,92.0.4515.131,Windows,10.0,5f461dd6c139dd6b46c7596cbd57cd79
208,1,"""","""","""","""","""",sampler,219,66960,0.0-6.0-213.0,"""","""","""","""","""","""","""","""","""","""","""","""","2021-08-13 21:39:57",94.61.65.159,"Mozilla/5.0 (Windows NT 10.0; Win64; x64) AppleWebKit/537.36 (KHTML, like Gecko) Chrome/92.0.4515.131 Safari/537.36",WebKit,Chrome,92.0.4515.131,Windows,10.0,5f461dd6c139dd6b46c7596cbd57cd79
208,1,"""","""","""","""","""",sampler,220,66960,0.0-6.0-214.0,"""","""","""","""","""","""","""","""","""","""","""","""","2021-08-13 21:39:57",94.61.65.159,"Mozilla/5.0 (Windows NT 10.0; Win64; x64) AppleWebKit/537.36 (KHTML, like Gecko) Chrome/92.0.4515.131 Safari/537.36",WebKit,Chrome,92.0.4515.131,Windows,10.0,5f461dd6c139dd6b46c7596cbd57cd79
208,1,"""","""","""","""","""",sampler,221,66961,0.0-6.0-215.0,"""","""","""","""","""","""","""","""","""","""","""","""","2021-08-13 21:39:57",94.61.65.159,"Mozilla/5.0 (Windows NT 10.0; Win64; x64) AppleWebKit/537.36 (KHTML, like Gecko) Chrome/92.0.4515.131 Safari/537.36",WebKit,Chrome,92.0.4515.131,Windows,10.0,5f461dd6c139dd6b46c7596cbd57cd79
208,1,"""","""","""","""","""",sampler,222,66961,0.0-6.0-216.0,"""","""","""","""","""","""","""","""","""","""","""","""","2021-08-13 21:39:57",94.61.65.159,"Mozilla/5.0 (Windows NT 10.0; Win64; x64) AppleWebKit/537.36 (KHTML, like Gecko) Chrome/92.0.4515.131 Safari/537.36",WebKit,Chrome,92.0.4515.131,Windows,10.0,5f461dd6c139dd6b46c7596cbd57cd79
208,1,"""","""","""","""","""",sampler,223,66961,0.0-6.0-217.0,"""","""","""","""","""","""","""","""","""","""","""","""","2021-08-13 21:39:57",94.61.65.159,"Mozilla/5.0 (Windows NT 10.0; Win64; x64) AppleWebKit/537.36 (KHTML, like Gecko) Chrome/92.0.4515.131 Safari/537.36",WebKit,Chrome,92.0.4515.131,Windows,10.0,5f461dd6c139dd6b46c7596cbd57cd79
208,1,"""","""","""","""","""",sampler,224,66961,0.0-6.0-218.0,"""","""","""","""","""","""","""","""","""","""","""","""","2021-08-13 21:39:57",94.61.65.159,"Mozilla/5.0 (Windows NT 10.0; Win64; x64) AppleWebKit/537.36 (KHTML, like Gecko) Chrome/92.0.4515.131 Safari/537.36",WebKit,Chrome,92.0.4515.131,Windows,10.0,5f461dd6c139dd6b46c7596cbd57cd79
208,1,"""","""","""","""","""",sampler,225,66961,0.0-6.0-219.0,"""","""","""","""","""","""","""","""","""","""","""","""","2021-08-13 21:39:57",94.61.65.159,"Mozilla/5.0 (Windows NT 10.0; Win64; x64) AppleWebKit/537.36 (KHTML, like Gecko) Chrome/92.0.4515.131 Safari/537.36",WebKit,Chrome,92.0.4515.131,Windows,10.0,5f461dd6c139dd6b46c7596cbd57cd79
208,1,"""","""","""","""","""",sampler,226,66961,0.0-6.0-220.0,"""","""","""","""","""","""","""","""","""","""","""","""","2021-08-13 21:39:57",94.61.65.159,"Mozilla/5.0 (Windows NT 10.0; Win64; x64) AppleWebKit/537.36 (KHTML, like Gecko) Chrome/92.0.4515.131 Safari/537.36",WebKit,Chrome,92.0.4515.131,Windows,10.0,5f461dd6c139dd6b46c7596cbd57cd79
208,1,"""","""","""","""","""",sampler,227,66961,0.0-6.0-221.0,"""","""","""","""","""","""","""","""","""","""","""","""","2021-08-13 21:39:57",94.61.65.159,"Mozilla/5.0 (Windows NT 10.0; Win64; x64) AppleWebKit/537.36 (KHTML, like Gecko) Chrome/92.0.4515.131 Safari/537.36",WebKit,Chrome,92.0.4515.131,Windows,10.0,5f461dd6c139dd6b46c7596cbd57cd79
208,1,"""","""","""","""","""",sampler,228,66961,0.0-6.0-222.0,"""","""","""","""","""","""","""","""","""","""","""","""","2021-08-13 21:39:57",94.61.65.159,"Mozilla/5.0 (Windows NT 10.0; Win64; x64) AppleWebKit/537.36 (KHTML, like Gecko) Chrome/92.0.4515.131 Safari/537.36",WebKit,Chrome,92.0.4515.131,Windows,10.0,5f461dd6c139dd6b46c7596cbd57cd79
208,1,"""","""","""","""","""",sampler,229,66962,0.0-6.0-223.0,"""","""","""","""","""","""","""","""","""","""","""","""","2021-08-13 21:39:57",94.61.65.159,"Mozilla/5.0 (Windows NT 10.0; Win64; x64) AppleWebKit/537.36 (KHTML, like Gecko) Chrome/92.0.4515.131 Safari/537.36",WebKit,Chrome,92.0.4515.131,Windows,10.0,5f461dd6c139dd6b46c7596cbd57cd79
208,1,"""","""","""","""","""",sampler,230,66963,0.0-6.0-224.0,"""","""","""","""","""","""","""","""","""","""","""","""","2021-08-13 21:39:57",94.61.65.159,"Mozilla/5.0 (Windows NT 10.0; Win64; x64) AppleWebKit/537.36 (KHTML, like Gecko) Chrome/92.0.4515.131 Safari/537.36",WebKit,Chrome,92.0.4515.131,Windows,10.0,5f461dd6c139dd6b46c7596cbd57cd79
208,1,"""","""","""","""","""",sampler,231,66963,0.0-6.0-225.0,"""","""","""","""","""","""","""","""","""","""","""","""","2021-08-13 21:39:57",94.61.65.159,"Mozilla/5.0 (Windows NT 10.0; Win64; x64) AppleWebKit/537.36 (KHTML, like Gecko) Chrome/92.0.4515.131 Safari/537.36",WebKit,Chrome,92.0.4515.131,Windows,10.0,5f461dd6c139dd6b46c7596cbd57cd79
208,1,"""","""","""","""","""",sampler,232,66963,0.0-6.0-226.0,"""","""","""","""","""","""","""","""","""","""","""","""","2021-08-13 21:39:57",94.61.65.159,"Mozilla/5.0 (Windows NT 10.0; Win64; x64) AppleWebKit/537.36 (KHTML, like Gecko) Chrome/92.0.4515.131 Safari/537.36",WebKit,Chrome,92.0.4515.131,Windows,10.0,5f461dd6c139dd6b46c7596cbd57cd79
208,1,"""","""","""","""","""",sampler,233,66963,0.0-6.0-227.0,"""","""","""","""","""","""","""","""","""","""","""","""","2021-08-13 21:39:57",94.61.65.159,"Mozilla/5.0 (Windows NT 10.0; Win64; x64) AppleWebKit/537.36 (KHTML, like Gecko) Chrome/92.0.4515.131 Safari/537.36",WebKit,Chrome,92.0.4515.131,Windows,10.0,5f461dd6c139dd6b46c7596cbd57cd79
208,1,"""","""","""","""","""",sampler,234,66963,0.0-6.0-228.0,"""","""","""","""","""","""","""","""","""","""","""","""","2021-08-13 21:39:57",94.61.65.159,"Mozilla/5.0 (Windows NT 10.0; Win64; x64) AppleWebKit/537.36 (KHTML, like Gecko) Chrome/92.0.4515.131 Safari/537.36",WebKit,Chrome,92.0.4515.131,Windows,10.0,5f461dd6c139dd6b46c7596cbd57cd79
208,1,"""","""","""","""","""",sampler,235,66963,0.0-6.0-229.0,"""","""","""","""","""","""","""","""","""","""","""","""","2021-08-13 21:39:57",94.61.65.159,"Mozilla/5.0 (Windows NT 10.0; Win64; x64) AppleWebKit/537.36 (KHTML, like Gecko) Chrome/92.0.4515.131 Safari/537.36",WebKit,Chrome,92.0.4515.131,Windows,10.0,5f461dd6c139dd6b46c7596cbd57cd79
208,1,"""","""","""","""","""",sampler,236,66963,0.0-6.0-230.0,"""","""","""","""","""","""","""","""","""","""","""","""","2021-08-13 21:39:57",94.61.65.159,"Mozilla/5.0 (Windows NT 10.0; Win64; x64) AppleWebKit/537.36 (KHTML, like Gecko) Chrome/92.0.4515.131 Safari/537.36",WebKit,Chrome,92.0.4515.131,Windows,10.0,5f461dd6c139dd6b46c7596cbd57cd79
208,1,"""","""","""","""","""",sampler,237,66964,0.0-6.0-231.0,"""","""","""","""","""","""","""","""","""","""","""","""","2021-08-13 21:39:57",94.61.65.159,"Mozilla/5.0 (Windows NT 10.0; Win64; x64) AppleWebKit/537.36 (KHTML, like Gecko) Chrome/92.0.4515.131 Safari/537.36",WebKit,Chrome,92.0.4515.131,Windows,10.0,5f461dd6c139dd6b46c7596cbd57cd79
208,1,"""","""","""","""","""",sampler,238,66964,0.0-6.0-232.0,"""","""","""","""","""","""","""","""","""","""","""","""","2021-08-13 21:39:57",94.61.65.159,"Mozilla/5.0 (Windows NT 10.0; Win64; x64) AppleWebKit/537.36 (KHTML, like Gecko) Chrome/92.0.4515.131 Safari/537.36",WebKit,Chrome,92.0.4515.131,Windows,10.0,5f461dd6c139dd6b46c7596cbd57cd79
208,1,"""","""","""","""","""",sampler,239,66964,0.0-6.0-233.0,"""","""","""","""","""","""","""","""","""","""","""","""","2021-08-13 21:39:57",94.61.65.159,"Mozilla/5.0 (Windows NT 10.0; Win64; x64) AppleWebKit/537.36 (KHTML, like Gecko) Chrome/92.0.4515.131 Safari/537.36",WebKit,Chrome,92.0.4515.131,Windows,10.0,5f461dd6c139dd6b46c7596cbd57cd79
208,1,"""","""","""","""","""",sampler,240,66964,0.0-6.0-234.0,"""","""","""","""","""","""","""","""","""","""","""","""","2021-08-13 21:39:57",94.61.65.159,"Mozilla/5.0 (Windows NT 10.0; Win64; x64) AppleWebKit/537.36 (KHTML, like Gecko) Chrome/92.0.4515.131 Safari/537.36",WebKit,Chrome,92.0.4515.131,Windows,10.0,5f461dd6c139dd6b46c7596cbd57cd79
208,1,"""","""","""","""","""",sampler,241,66964,0.0-6.0-235.0,"""","""","""","""","""","""","""","""","""","""","""","""","2021-08-13 21:39:57",94.61.65.159,"Mozilla/5.0 (Windows NT 10.0; Win64; x64) AppleWebKit/537.36 (KHTML, like Gecko) Chrome/92.0.4515.131 Safari/537.36",WebKit,Chrome,92.0.4515.131,Windows,10.0,5f461dd6c139dd6b46c7596cbd57cd79
208,1,"""","""","""","""","""",sampler,242,66964,0.0-6.0-236.0,"""","""","""","""","""","""","""","""","""","""","""","""","2021-08-13 21:39:57",94.61.65.159,"Mozilla/5.0 (Windows NT 10.0; Win64; x64) AppleWebKit/537.36 (KHTML, like Gecko) Chrome/92.0.4515.131 Safari/537.36",WebKit,Chrome,92.0.4515.131,Windows,10.0,5f461dd6c139dd6b46c7596cbd57cd79
208,1,"""","""","""","""","""",sampler,243,66964,0.0-6.0-237.0,"""","""","""","""","""","""","""","""","""","""","""","""","2021-08-13 21:39:57",94.61.65.159,"Mozilla/5.0 (Windows NT 10.0; Win64; x64) AppleWebKit/537.36 (KHTML, like Gecko) Chrome/92.0.4515.131 Safari/537.36",WebKit,Chrome,92.0.4515.131,Windows,10.0,5f461dd6c139dd6b46c7596cbd57cd79
208,1,"""","""","""","""","""",sampler,244,66964,0.0-6.0-238.0,"""","""","""","""","""","""","""","""","""","""","""","""","2021-08-13 21:39:57",94.61.65.159,"Mozilla/5.0 (Windows NT 10.0; Win64; x64) AppleWebKit/537.36 (KHTML, like Gecko) Chrome/92.0.4515.131 Safari/537.36",WebKit,Chrome,92.0.4515.131,Windows,10.0,5f461dd6c139dd6b46c7596cbd57cd79
208,1,"""","""","""","""","""",sampler,245,66964,0.0-6.0-239.0,"""","""","""","""","""","""","""","""","""","""","""","""","2021-08-13 21:39:57",94.61.65.159,"Mozilla/5.0 (Windows NT 10.0; Win64; x64) AppleWebKit/537.36 (KHTML, like Gecko) Chrome/92.0.4515.131 Safari/537.36",WebKit,Chrome,92.0.4515.131,Windows,10.0,5f461dd6c139dd6b46c7596cbd57cd79
208,1,"""","""","""","""","""",sampler,246,66965,0.0-6.0-240.0,"""","""","""","""","""","""","""","""","""","""","""","""","2021-08-13 21:39:57",94.61.65.159,"Mozilla/5.0 (Windows NT 10.0; Win64; x64) AppleWebKit/537.36 (KHTML, like Gecko) Chrome/92.0.4515.131 Safari/537.36",WebKit,Chrome,92.0.4515.131,Windows,10.0,5f461dd6c139dd6b46c7596cbd57cd79
208,1,"""","""","""","""","""",sampler,247,66965,0.0-6.0-241.0,"""","""","""","""","""","""","""","""","""","""","""","""","2021-08-13 21:39:57",94.61.65.159,"Mozilla/5.0 (Windows NT 10.0; Win64; x64) AppleWebKit/537.36 (KHTML, like Gecko) Chrome/92.0.4515.131 Safari/537.36",WebKit,Chrome,92.0.4515.131,Windows,10.0,5f461dd6c139dd6b46c7596cbd57cd79
208,1,"""","""","""","""","""",sampler,248,66965,0.0-6.0-242.0,"""","""","""","""","""","""","""","""","""","""","""","""","2021-08-13 21:39:57",94.61.65.159,"Mozilla/5.0 (Windows NT 10.0; Win64; x64) AppleWebKit/537.36 (KHTML, like Gecko) Chrome/92.0.4515.131 Safari/537.36",WebKit,Chrome,92.0.4515.131,Windows,10.0,5f461dd6c139dd6b46c7596cbd57cd79
208,1,"""","""","""","""","""",sampler,249,66965,0.0-6.0-243.0,"""","""","""","""","""","""","""","""","""","""","""","""","2021-08-13 21:39:57",94.61.65.159,"Mozilla/5.0 (Windows NT 10.0; Win64; x64) AppleWebKit/537.36 (KHTML, like Gecko) Chrome/92.0.4515.131 Safari/537.36",WebKit,Chrome,92.0.4515.131,Windows,10.0,5f461dd6c139dd6b46c7596cbd57cd79
208,1,"""","""","""","""","""",sampler,250,66965,0.0-6.0-244.0,"""","""","""","""","""","""","""","""","""","""","""","""","2021-08-13 21:39:57",94.61.65.159,"Mozilla/5.0 (Windows NT 10.0; Win64; x64) AppleWebKit/537.36 (KHTML, like Gecko) Chrome/92.0.4515.131 Safari/537.36",WebKit,Chrome,92.0.4515.131,Windows,10.0,5f461dd6c139dd6b46c7596cbd57cd79
208,1,"""","""","""","""","""",sampler,251,66965,0.0-6.0-245.0,"""","""","""","""","""","""","""","""","""","""","""","""","2021-08-13 21:39:57",94.61.65.159,"Mozilla/5.0 (Windows NT 10.0; Win64; x64) AppleWebKit/537.36 (KHTML, like Gecko) Chrome/92.0.4515.131 Safari/537.36",WebKit,Chrome,92.0.4515.131,Windows,10.0,5f461dd6c139dd6b46c7596cbd57cd79
208,1,"""","""","""","""","""",sampler,252,66965,0.0-6.0-246.0,"""","""","""","""","""","""","""","""","""","""","""","""","2021-08-13 21:39:57",94.61.65.159,"Mozilla/5.0 (Windows NT 10.0; Win64; x64) AppleWebKit/537.36 (KHTML, like Gecko) Chrome/92.0.4515.131 Safari/537.36",WebKit,Chrome,92.0.4515.131,Windows,10.0,5f461dd6c139dd6b46c7596cbd57cd79
208,1,"""","""","""","""","""",sampler,253,66965,0.0-6.0-247.0,"""","""","""","""","""","""","""","""","""","""","""","""","2021-08-13 21:39:57",94.61.65.159,"Mozilla/5.0 (Windows NT 10.0; Win64; x64) AppleWebKit/537.36 (KHTML, like Gecko) Chrome/92.0.4515.131 Safari/537.36",WebKit,Chrome,92.0.4515.131,Windows,10.0,5f461dd6c139dd6b46c7596cbd57cd79
208,1,"""","""","""","""","""",sampler,254,66965,0.0-6.0-248.0,"""","""","""","""","""","""","""","""","""","""","""","""","2021-08-13 21:39:57",94.61.65.159,"Mozilla/5.0 (Windows NT 10.0; Win64; x64) AppleWebKit/537.36 (KHTML, like Gecko) Chrome/92.0.4515.131 Safari/537.36",WebKit,Chrome,92.0.4515.131,Windows,10.0,5f461dd6c139dd6b46c7596cbd57cd79
208,1,"""","""","""","""","""",sampler,255,66966,0.0-6.0-249.0,"""","""","""","""","""","""","""","""","""","""","""","""","2021-08-13 21:39:57",94.61.65.159,"Mozilla/5.0 (Windows NT 10.0; Win64; x64) AppleWebKit/537.36 (KHTML, like Gecko) Chrome/92.0.4515.131 Safari/537.36",WebKit,Chrome,92.0.4515.131,Windows,10.0,5f461dd6c139dd6b46c7596cbd57cd79
208,1,"""","""","""","""","""",sampler,256,66966,0.0-6.0-250.0,"""","""","""","""","""","""","""","""","""","""","""","""","2021-08-13 21:39:57",94.61.65.159,"Mozilla/5.0 (Windows NT 10.0; Win64; x64) AppleWebKit/537.36 (KHTML, like Gecko) Chrome/92.0.4515.131 Safari/537.36",WebKit,Chrome,92.0.4515.131,Windows,10.0,5f461dd6c139dd6b46c7596cbd57cd79
208,1,"""","""","""","""","""",sampler,257,66966,0.0-6.0-251.0,"""","""","""","""","""","""","""","""","""","""","""","""","2021-08-13 21:39:57",94.61.65.159,"Mozilla/5.0 (Windows NT 10.0; Win64; x64) AppleWebKit/537.36 (KHTML, like Gecko) Chrome/92.0.4515.131 Safari/537.36",WebKit,Chrome,92.0.4515.131,Windows,10.0,5f461dd6c139dd6b46c7596cbd57cd79
208,1,"""","""","""","""","""",sampler,258,66966,0.0-6.0-252.0,"""","""","""","""","""","""","""","""","""","""","""","""","2021-08-13 21:39:57",94.61.65.159,"Mozilla/5.0 (Windows NT 10.0; Win64; x64) AppleWebKit/537.36 (KHTML, like Gecko) Chrome/92.0.4515.131 Safari/537.36",WebKit,Chrome,92.0.4515.131,Windows,10.0,5f461dd6c139dd6b46c7596cbd57cd79
208,1,"""","""","""","""","""",sampler,259,66966,0.0-6.0-253.0,"""","""","""","""","""","""","""","""","""","""","""","""","2021-08-13 21:39:57",94.61.65.159,"Mozilla/5.0 (Windows NT 10.0; Win64; x64) AppleWebKit/537.36 (KHTML, like Gecko) Chrome/92.0.4515.131 Safari/537.36",WebKit,Chrome,92.0.4515.131,Windows,10.0,5f461dd6c139dd6b46c7596cbd57cd79
208,1,"""","""","""","""","""",sampler,260,66966,0.0-6.0-254.0,"""","""","""","""","""","""","""","""","""","""","""","""","2021-08-13 21:39:57",94.61.65.159,"Mozilla/5.0 (Windows NT 10.0; Win64; x64) AppleWebKit/537.36 (KHTML, like Gecko) Chrome/92.0.4515.131 Safari/537.36",WebKit,Chrome,92.0.4515.131,Windows,10.0,5f461dd6c139dd6b46c7596cbd57cd79
208,1,"""","""","""","""","""",sampler,261,66966,0.0-6.0-255.0,"""","""","""","""","""","""","""","""","""","""","""","""","2021-08-13 21:39:57",94.61.65.159,"Mozilla/5.0 (Windows NT 10.0; Win64; x64) AppleWebKit/537.36 (KHTML, like Gecko) Chrome/92.0.4515.131 Safari/537.36",WebKit,Chrome,92.0.4515.131,Windows,10.0,5f461dd6c139dd6b46c7596cbd57cd79
208,1,"""","""","""","""","""",sampler,262,66966,0.0-6.0-256.0,"""","""","""","""","""","""","""","""","""","""","""","""","2021-08-13 21:39:57",94.61.65.159,"Mozilla/5.0 (Windows NT 10.0; Win64; x64) AppleWebKit/537.36 (KHTML, like Gecko) Chrome/92.0.4515.131 Safari/537.36",WebKit,Chrome,92.0.4515.131,Windows,10.0,5f461dd6c139dd6b46c7596cbd57cd79
208,1,"""","""","""","""","""",sampler,263,66967,0.0-6.0-257.0,"""","""","""","""","""","""","""","""","""","""","""","""","2021-08-13 21:39:57",94.61.65.159,"Mozilla/5.0 (Windows NT 10.0; Win64; x64) AppleWebKit/537.36 (KHTML, like Gecko) Chrome/92.0.4515.131 Safari/537.36",WebKit,Chrome,92.0.4515.131,Windows,10.0,5f461dd6c139dd6b46c7596cbd57cd79
208,1,"""","""","""","""","""",sampler,264,66967,0.0-6.0-258.0,"""","""","""","""","""","""","""","""","""","""","""","""","2021-08-13 21:39:57",94.61.65.159,"Mozilla/5.0 (Windows NT 10.0; Win64; x64) AppleWebKit/537.36 (KHTML, like Gecko) Chrome/92.0.4515.131 Safari/537.36",WebKit,Chrome,92.0.4515.131,Windows,10.0,5f461dd6c139dd6b46c7596cbd57cd79
208,1,"""","""","""","""","""",sampler,265,66967,0.0-6.0-259.0,"""","""","""","""","""","""","""","""","""","""","""","""","2021-08-13 21:39:57",94.61.65.159,"Mozilla/5.0 (Windows NT 10.0; Win64; x64) AppleWebKit/537.36 (KHTML, like Gecko) Chrome/92.0.4515.131 Safari/537.36",WebKit,Chrome,92.0.4515.131,Windows,10.0,5f461dd6c139dd6b46c7596cbd57cd79
208,1,"""","""","""","""","""",sampler,266,66967,0.0-6.0-260.0,"""","""","""","""","""","""","""","""","""","""","""","""","2021-08-13 21:39:57",94.61.65.159,"Mozilla/5.0 (Windows NT 10.0; Win64; x64) AppleWebKit/537.36 (KHTML, like Gecko) Chrome/92.0.4515.131 Safari/537.36",WebKit,Chrome,92.0.4515.131,Windows,10.0,5f461dd6c139dd6b46c7596cbd57cd79
208,1,"""","""","""","""","""",sampler,267,66967,0.0-6.0-261.0,"""","""","""","""","""","""","""","""","""","""","""","""","2021-08-13 21:39:57",94.61.65.159,"Mozilla/5.0 (Windows NT 10.0; Win64; x64) AppleWebKit/537.36 (KHTML, like Gecko) Chrome/92.0.4515.131 Safari/537.36",WebKit,Chrome,92.0.4515.131,Windows,10.0,5f461dd6c139dd6b46c7596cbd57cd79
208,1,"""","""","""","""","""",sampler,268,66967,0.0-6.0-262.0,"""","""","""","""","""","""","""","""","""","""","""","""","2021-08-13 21:39:57",94.61.65.159,"Mozilla/5.0 (Windows NT 10.0; Win64; x64) AppleWebKit/537.36 (KHTML, like Gecko) Chrome/92.0.4515.131 Safari/537.36",WebKit,Chrome,92.0.4515.131,Windows,10.0,5f461dd6c139dd6b46c7596cbd57cd79
208,1,"""","""","""","""","""",sampler,269,66967,0.0-6.0-263.0,"""","""","""","""","""","""","""","""","""","""","""","""","2021-08-13 21:39:57",94.61.65.159,"Mozilla/5.0 (Windows NT 10.0; Win64; x64) AppleWebKit/537.36 (KHTML, like Gecko) Chrome/92.0.4515.131 Safari/537.36",WebKit,Chrome,92.0.4515.131,Windows,10.0,5f461dd6c139dd6b46c7596cbd57cd79
208,1,"""","""","""","""","""",sampler,270,66967,0.0-6.0-264.0,"""","""","""","""","""","""","""","""","""","""","""","""","2021-08-13 21:39:57",94.61.65.159,"Mozilla/5.0 (Windows NT 10.0; Win64; x64) AppleWebKit/537.36 (KHTML, like Gecko) Chrome/92.0.4515.131 Safari/537.36",WebKit,Chrome,92.0.4515.131,Windows,10.0,5f461dd6c139dd6b46c7596cbd57cd79
208,1,"""","""","""","""","""",sampler,271,66967,0.0-6.0-265.0,"""","""","""","""","""","""","""","""","""","""","""","""","2021-08-13 21:39:57",94.61.65.159,"Mozilla/5.0 (Windows NT 10.0; Win64; x64) AppleWebKit/537.36 (KHTML, like Gecko) Chrome/92.0.4515.131 Safari/537.36",WebKit,Chrome,92.0.4515.131,Windows,10.0,5f461dd6c139dd6b46c7596cbd57cd79
208,1,"""","""","""","""","""",sampler,272,66968,0.0-6.0-266.0,"""","""","""","""","""","""","""","""","""","""","""","""","2021-08-13 21:39:57",94.61.65.159,"Mozilla/5.0 (Windows NT 10.0; Win64; x64) AppleWebKit/537.36 (KHTML, like Gecko) Chrome/92.0.4515.131 Safari/537.36",WebKit,Chrome,92.0.4515.131,Windows,10.0,5f461dd6c139dd6b46c7596cbd57cd79
208,1,"""","""","""","""","""",sampler,273,66968,0.0-6.0-267.0,"""","""","""","""","""","""","""","""","""","""","""","""","2021-08-13 21:39:57",94.61.65.159,"Mozilla/5.0 (Windows NT 10.0; Win64; x64) AppleWebKit/537.36 (KHTML, like Gecko) Chrome/92.0.4515.131 Safari/537.36",WebKit,Chrome,92.0.4515.131,Windows,10.0,5f461dd6c139dd6b46c7596cbd57cd79
208,1,"""","""","""","""","""",sampler,274,66968,0.0-6.0-268.0,"""","""","""","""","""","""","""","""","""","""","""","""","2021-08-13 21:39:57",94.61.65.159,"Mozilla/5.0 (Windows NT 10.0; Win64; x64) AppleWebKit/537.36 (KHTML, like Gecko) Chrome/92.0.4515.131 Safari/537.36",WebKit,Chrome,92.0.4515.131,Windows,10.0,5f461dd6c139dd6b46c7596cbd57cd79
208,1,"""","""","""","""","""",sampler,275,66968,0.0-6.0-269.0,"""","""","""","""","""","""","""","""","""","""","""","""","2021-08-13 21:39:57",94.61.65.159,"Mozilla/5.0 (Windows NT 10.0; Win64; x64) AppleWebKit/537.36 (KHTML, like Gecko) Chrome/92.0.4515.131 Safari/537.36",WebKit,Chrome,92.0.4515.131,Windows,10.0,5f461dd6c139dd6b46c7596cbd57cd79
208,1,"""","""","""","""","""",sampler,276,66968,0.0-6.0-270.0,"""","""","""","""","""","""","""","""","""","""","""","""","2021-08-13 21:39:57",94.61.65.159,"Mozilla/5.0 (Windows NT 10.0; Win64; x64) AppleWebKit/537.36 (KHTML, like Gecko) Chrome/92.0.4515.131 Safari/537.36",WebKit,Chrome,92.0.4515.131,Windows,10.0,5f461dd6c139dd6b46c7596cbd57cd79
208,1,"""","""","""","""","""",sampler,277,66968,0.0-6.0-271.0,"""","""","""","""","""","""","""","""","""","""","""","""","2021-08-13 21:39:57",94.61.65.159,"Mozilla/5.0 (Windows NT 10.0; Win64; x64) AppleWebKit/537.36 (KHTML, like Gecko) Chrome/92.0.4515.131 Safari/537.36",WebKit,Chrome,92.0.4515.131,Windows,10.0,5f461dd6c139dd6b46c7596cbd57cd79
208,1,"""","""","""","""","""",sampler,278,66968,0.0-6.0-272.0,"""","""","""","""","""","""","""","""","""","""","""","""","2021-08-13 21:39:57",94.61.65.159,"Mozilla/5.0 (Windows NT 10.0; Win64; x64) AppleWebKit/537.36 (KHTML, like Gecko) Chrome/92.0.4515.131 Safari/537.36",WebKit,Chrome,92.0.4515.131,Windows,10.0,5f461dd6c139dd6b46c7596cbd57cd79
208,1,"""","""","""","""","""",sampler,279,66968,0.0-6.0-273.0,"""","""","""","""","""","""","""","""","""","""","""","""","2021-08-13 21:39:57",94.61.65.159,"Mozilla/5.0 (Windows NT 10.0; Win64; x64) AppleWebKit/537.36 (KHTML, like Gecko) Chrome/92.0.4515.131 Safari/537.36",WebKit,Chrome,92.0.4515.131,Windows,10.0,5f461dd6c139dd6b46c7596cbd57cd79
208,1,"""","""","""","""","""",sampler,280,66969,0.0-6.0-274.0,"""","""","""","""","""","""","""","""","""","""","""","""","2021-08-13 21:39:57",94.61.65.159,"Mozilla/5.0 (Windows NT 10.0; Win64; x64) AppleWebKit/537.36 (KHTML, like Gecko) Chrome/92.0.4515.131 Safari/537.36",WebKit,Chrome,92.0.4515.131,Windows,10.0,5f461dd6c139dd6b46c7596cbd57cd79
208,1,"""","""","""","""","""",sampler,281,66969,0.0-6.0-275.0,"""","""","""","""","""","""","""","""","""","""","""","""","2021-08-13 21:39:57",94.61.65.159,"Mozilla/5.0 (Windows NT 10.0; Win64; x64) AppleWebKit/537.36 (KHTML, like Gecko) Chrome/92.0.4515.131 Safari/537.36",WebKit,Chrome,92.0.4515.131,Windows,10.0,5f461dd6c139dd6b46c7596cbd57cd79
208,1,"""","""","""","""","""",sampler,282,66969,0.0-6.0-276.0,"""","""","""","""","""","""","""","""","""","""","""","""","2021-08-13 21:39:57",94.61.65.159,"Mozilla/5.0 (Windows NT 10.0; Win64; x64) AppleWebKit/537.36 (KHTML, like Gecko) Chrome/92.0.4515.131 Safari/537.36",WebKit,Chrome,92.0.4515.131,Windows,10.0,5f461dd6c139dd6b46c7596cbd57cd79
