run_id,condition,success,timeout,failed_images,failed_audio,failed_video,trial_type,trial_index,time_elapsed,internal_node_id,rt,stimulus,key_press,responses,view_history,correct,image_click,points,sd,points2,total_earn,button_pressed,recorded_at,ip,user_agent,device,browser,browser_version,platform,platform_version,source_code_version
224,1,true,false,"""","""","""",preload,0,822,0.0-0.0,"""","""","""","""","""","""","""","""","""","""","""","""","2021-08-17 18:03:47",70.160.28.221,"Mozilla/5.0 (Windows NT 10.0; Win64; x64) AppleWebKit/537.36 (KHTML, like Gecko) Chrome/92.0.4515.131 Safari/537.36",WebKit,Chrome,92.0.4515.131,Windows,10.0,5f461dd6c139dd6b46c7596cbd57cd79
224,1,"""","""","""","""","""",html-keyboard-response,1,2766,0.0-1.0,1938,"<font size=15>Welcome to our experiment!</font><br><br><br><i> Press <b>space bar</b> to begin.</i>",32,"""","""","""","""","""","""","""","""","""","2021-08-17 18:03:47",70.160.28.221,"Mozilla/5.0 (Windows NT 10.0; Win64; x64) AppleWebKit/537.36 (KHTML, like Gecko) Chrome/92.0.4515.131 Safari/537.36",WebKit,Chrome,92.0.4515.131,Windows,10.0,5f461dd6c139dd6b46c7596cbd57cd79
224,1,"""","""","""","""","""",survey-multi-choice,2,17296,0.0-2.0,14525,"""","""","{""Q0"":""Yes"",""Q1"":""Yes"",""Q2"":""Yes"",""Q3"":""Yes""}","""","""","""","""","""","""","""","""","2021-08-17 18:03:47",70.160.28.221,"Mozilla/5.0 (Windows NT 10.0; Win64; x64) AppleWebKit/537.36 (KHTML, like Gecko) Chrome/92.0.4515.131 Safari/537.36",WebKit,Chrome,92.0.4515.131,Windows,10.0,5f461dd6c139dd6b46c7596cbd57cd79
224,1,"""","""","""","""","""",survey-html-form,3,31235,0.0-3.0,13934.5,"""","""","{""gender"":""female"",""age"":""26"",""hand"":""right"",""mail"":""60fc885ecf0aa0e2a50996a7""}","""","""","""","""","""","""","""","""","2021-08-17 18:03:47",70.160.28.221,"Mozilla/5.0 (Windows NT 10.0; Win64; x64) AppleWebKit/537.36 (KHTML, like Gecko) Chrome/92.0.4515.131 Safari/537.36",WebKit,Chrome,92.0.4515.131,Windows,10.0,5f461dd6c139dd6b46c7596cbd57cd79
224,1,true,"""","""","""","""",fullscreen,4,34305,0.0-4.0,"""","""","""","""","""","""","""","""","""","""","""","""","2021-08-17 18:03:47",70.160.28.221,"Mozilla/5.0 (Windows NT 10.0; Win64; x64) AppleWebKit/537.36 (KHTML, like Gecko) Chrome/92.0.4515.131 Safari/537.36",WebKit,Chrome,92.0.4515.131,Windows,10.0,5f461dd6c139dd6b46c7596cbd57cd79
224,1,"""","""","""","""","""",multikey-instructions,5,210398,0.0-5.0,176089,"""","""","""","[{""page_index"":0,""viewing_time"":30949},{""page_index"":1,""viewing_time"":23295},{""page_index"":2,""viewing_time"":40970},{""page_index"":3,""viewing_time"":13635},{""page_index"":4,""viewing_time"":10602},{""page_index"":5,""viewing_time"":10781},{""page_index"":6,""viewing_time"":5409},{""page_index"":7,""viewing_time"":11420},{""page_index"":8,""viewing_time"":8915},{""page_index"":9,""viewing_time"":6777},{""page_index"":10,""viewing_time"":8164},{""page_index"":11,""viewing_time"":5171}]","""","""","""","""","""","""","""","2021-08-17 18:03:47",70.160.28.221,"Mozilla/5.0 (Windows NT 10.0; Win64; x64) AppleWebKit/537.36 (KHTML, like Gecko) Chrome/92.0.4515.131 Safari/537.36",WebKit,Chrome,92.0.4515.131,Windows,10.0,5f461dd6c139dd6b46c7596cbd57cd79
224,1,"""","""","""","""","""",sampler,6,217635,0.0-6.0-0.0,6828,img/Cobalt.png,"""","""","""",false,-1,17.36613750655124,10,"""","""","""","2021-08-17 18:03:47",70.160.28.221,"Mozilla/5.0 (Windows NT 10.0; Win64; x64) AppleWebKit/537.36 (KHTML, like Gecko) Chrome/92.0.4515.131 Safari/537.36",WebKit,Chrome,92.0.4515.131,Windows,10.0,5f461dd6c139dd6b46c7596cbd57cd79
224,1,"""","""","""","""","""",sampler,7,222649,0.0-6.0-1.0,4602,img/Cobalt.png,"""","""","""",false,-1,7.61207560924375,10,"""","""","""","2021-08-17 18:03:47",70.160.28.221,"Mozilla/5.0 (Windows NT 10.0; Win64; x64) AppleWebKit/537.36 (KHTML, like Gecko) Chrome/92.0.4515.131 Safari/537.36",WebKit,Chrome,92.0.4515.131,Windows,10.0,5f461dd6c139dd6b46c7596cbd57cd79
224,1,"""","""","""","""","""",sampler,8,225454,0.0-6.0-2.0,2397,img/Cobalt.png,"""","""","""",false,-1,9.306094698714809,10,"""","""","""","2021-08-17 18:03:47",70.160.28.221,"Mozilla/5.0 (Windows NT 10.0; Win64; x64) AppleWebKit/537.36 (KHTML, like Gecko) Chrome/92.0.4515.131 Safari/537.36",WebKit,Chrome,92.0.4515.131,Windows,10.0,5f461dd6c139dd6b46c7596cbd57cd79
224,1,"""","""","""","""","""",sampler,9,226395,0.0-6.0-3.0,532,img/Cobalt.png,"""","""","""",false,-1,-2.408924710224035,10,"""","""","""","2021-08-17 18:03:47",70.160.28.221,"Mozilla/5.0 (Windows NT 10.0; Win64; x64) AppleWebKit/537.36 (KHTML, like Gecko) Chrome/92.0.4515.131 Safari/537.36",WebKit,Chrome,92.0.4515.131,Windows,10.0,5f461dd6c139dd6b46c7596cbd57cd79
224,1,"""","""","""","""","""",sampler,10,227166,0.0-6.0-4.0,367,img/Cobalt.png,"""","""","""",false,-1,11.559896537540471,10,"""","""","""","2021-08-17 18:03:47",70.160.28.221,"Mozilla/5.0 (Windows NT 10.0; Win64; x64) AppleWebKit/537.36 (KHTML, like Gecko) Chrome/92.0.4515.131 Safari/537.36",WebKit,Chrome,92.0.4515.131,Windows,10.0,5f461dd6c139dd6b46c7596cbd57cd79
224,1,"""","""","""","""","""",sampler,11,227982,0.0-6.0-5.0,409,img/Cobalt.png,"""","""","""",false,-1,30.50143444760064,10,"""","""","""","2021-08-17 18:03:47",70.160.28.221,"Mozilla/5.0 (Windows NT 10.0; Win64; x64) AppleWebKit/537.36 (KHTML, like Gecko) Chrome/92.0.4515.131 Safari/537.36",WebKit,Chrome,92.0.4515.131,Windows,10.0,5f461dd6c139dd6b46c7596cbd57cd79
224,1,"""","""","""","""","""",sampler,12,228789,0.0-6.0-6.0,401,img/Cobalt.png,"""","""","""",false,-1,12.952865941026431,10,"""","""","""","2021-08-17 18:03:47",70.160.28.221,"Mozilla/5.0 (Windows NT 10.0; Win64; x64) AppleWebKit/537.36 (KHTML, like Gecko) Chrome/92.0.4515.131 Safari/537.36",WebKit,Chrome,92.0.4515.131,Windows,10.0,5f461dd6c139dd6b46c7596cbd57cd79
224,1,"""","""","""","""","""",sampler,13,229436,0.0-6.0-7.0,241,img/Cobalt.png,"""","""","""",false,-1,10.715721139901689,10,"""","""","""","2021-08-17 18:03:47",70.160.28.221,"Mozilla/5.0 (Windows NT 10.0; Win64; x64) AppleWebKit/537.36 (KHTML, like Gecko) Chrome/92.0.4515.131 Safari/537.36",WebKit,Chrome,92.0.4515.131,Windows,10.0,5f461dd6c139dd6b46c7596cbd57cd79
224,1,"""","""","""","""","""",sampler,14,229958,0.0-6.0-8.0,114,img/Cobalt.png,"""","""","""",false,-1,20.515552913937853,10,"""","""","""","2021-08-17 18:03:47",70.160.28.221,"Mozilla/5.0 (Windows NT 10.0; Win64; x64) AppleWebKit/537.36 (KHTML, like Gecko) Chrome/92.0.4515.131 Safari/537.36",WebKit,Chrome,92.0.4515.131,Windows,10.0,5f461dd6c139dd6b46c7596cbd57cd79
224,1,"""","""","""","""","""",sampler,15,230427,0.0-6.0-9.0,63,img/Cobalt.png,"""","""","""",false,-1,0.08295818746091754,10,"""","""","""","2021-08-17 18:03:47",70.160.28.221,"Mozilla/5.0 (Windows NT 10.0; Win64; x64) AppleWebKit/537.36 (KHTML, like Gecko) Chrome/92.0.4515.131 Safari/537.36",WebKit,Chrome,92.0.4515.131,Windows,10.0,5f461dd6c139dd6b46c7596cbd57cd79
224,1,"""","""","""","""","""",sampler,16,230976,0.0-6.0-10.0,143,img/Cobalt.png,"""","""","""",false,-1,5.414409690125867,10,"""","""","""","2021-08-17 18:03:47",70.160.28.221,"Mozilla/5.0 (Windows NT 10.0; Win64; x64) AppleWebKit/537.36 (KHTML, like Gecko) Chrome/92.0.4515.131 Safari/537.36",WebKit,Chrome,92.0.4515.131,Windows,10.0,5f461dd6c139dd6b46c7596cbd57cd79
224,1,"""","""","""","""","""",sampler,17,231559,0.0-6.0-11.0,174,img/Cobalt.png,"""","""","""",false,-1,-13.779287337677893,10,"""","""","""","2021-08-17 18:03:47",70.160.28.221,"Mozilla/5.0 (Windows NT 10.0; Win64; x64) AppleWebKit/537.36 (KHTML, like Gecko) Chrome/92.0.4515.131 Safari/537.36",WebKit,Chrome,92.0.4515.131,Windows,10.0,5f461dd6c139dd6b46c7596cbd57cd79
224,1,"""","""","""","""","""",sampler,18,232210,0.0-6.0-12.0,245,img/Cobalt.png,"""","""","""",false,-1,-2.5814321449858015,10,"""","""","""","2021-08-17 18:03:47",70.160.28.221,"Mozilla/5.0 (Windows NT 10.0; Win64; x64) AppleWebKit/537.36 (KHTML, like Gecko) Chrome/92.0.4515.131 Safari/537.36",WebKit,Chrome,92.0.4515.131,Windows,10.0,5f461dd6c139dd6b46c7596cbd57cd79
224,1,"""","""","""","""","""",sampler,19,232753,0.0-6.0-13.0,139,img/Cobalt.png,"""","""","""",false,-1,-10.673717262625567,10,"""","""","""","2021-08-17 18:03:47",70.160.28.221,"Mozilla/5.0 (Windows NT 10.0; Win64; x64) AppleWebKit/537.36 (KHTML, like Gecko) Chrome/92.0.4515.131 Safari/537.36",WebKit,Chrome,92.0.4515.131,Windows,10.0,5f461dd6c139dd6b46c7596cbd57cd79
224,1,"""","""","""","""","""",sampler,20,233251,0.0-6.0-14.0,93,img/Cobalt.png,"""","""","""",false,-1,11.976459927596682,10,"""","""","""","2021-08-17 18:03:47",70.160.28.221,"Mozilla/5.0 (Windows NT 10.0; Win64; x64) AppleWebKit/537.36 (KHTML, like Gecko) Chrome/92.0.4515.131 Safari/537.36",WebKit,Chrome,92.0.4515.131,Windows,10.0,5f461dd6c139dd6b46c7596cbd57cd79
224,1,"""","""","""","""","""",sampler,21,233871,0.0-6.0-15.0,215,img/Cobalt.png,"""","""","""",false,-1,17.253062627420604,10,"""","""","""","2021-08-17 18:03:47",70.160.28.221,"Mozilla/5.0 (Windows NT 10.0; Win64; x64) AppleWebKit/537.36 (KHTML, like Gecko) Chrome/92.0.4515.131 Safari/537.36",WebKit,Chrome,92.0.4515.131,Windows,10.0,5f461dd6c139dd6b46c7596cbd57cd79
224,1,"""","""","""","""","""",sampler,22,234335,0.0-6.0-16.0,58,img/Cobalt.png,"""","""","""",false,-1,17.186444191077566,10,"""","""","""","2021-08-17 18:03:47",70.160.28.221,"Mozilla/5.0 (Windows NT 10.0; Win64; x64) AppleWebKit/537.36 (KHTML, like Gecko) Chrome/92.0.4515.131 Safari/537.36",WebKit,Chrome,92.0.4515.131,Windows,10.0,5f461dd6c139dd6b46c7596cbd57cd79
224,1,"""","""","""","""","""",sampler,23,234880,0.0-6.0-17.0,140,img/Cobalt.png,"""","""","""",false,-1,8.903485850326003,10,"""","""","""","2021-08-17 18:03:47",70.160.28.221,"Mozilla/5.0 (Windows NT 10.0; Win64; x64) AppleWebKit/537.36 (KHTML, like Gecko) Chrome/92.0.4515.131 Safari/537.36",WebKit,Chrome,92.0.4515.131,Windows,10.0,5f461dd6c139dd6b46c7596cbd57cd79
224,1,"""","""","""","""","""",sampler,24,235358,0.0-6.0-18.0,66,img/Cobalt.png,"""","""","""",false,-1,6.339827967468836,10,"""","""","""","2021-08-17 18:03:47",70.160.28.221,"Mozilla/5.0 (Windows NT 10.0; Win64; x64) AppleWebKit/537.36 (KHTML, like Gecko) Chrome/92.0.4515.131 Safari/537.36",WebKit,Chrome,92.0.4515.131,Windows,10.0,5f461dd6c139dd6b46c7596cbd57cd79
224,1,"""","""","""","""","""",sampler,25,235837,0.0-6.0-19.0,76,img/Cobalt.png,"""","""","""",false,-1,-0.7237004198448078,10,"""","""","""","2021-08-17 18:03:47",70.160.28.221,"Mozilla/5.0 (Windows NT 10.0; Win64; x64) AppleWebKit/537.36 (KHTML, like Gecko) Chrome/92.0.4515.131 Safari/537.36",WebKit,Chrome,92.0.4515.131,Windows,10.0,5f461dd6c139dd6b46c7596cbd57cd79
224,1,"""","""","""","""","""",sampler,26,236441,0.0-6.0-20.0,197,img/Cobalt.png,"""","""","""",false,-1,8.311730244895703,10,"""","""","""","2021-08-17 18:03:47",70.160.28.221,"Mozilla/5.0 (Windows NT 10.0; Win64; x64) AppleWebKit/537.36 (KHTML, like Gecko) Chrome/92.0.4515.131 Safari/537.36",WebKit,Chrome,92.0.4515.131,Windows,10.0,5f461dd6c139dd6b46c7596cbd57cd79
224,1,"""","""","""","""","""",sampler,27,237075,0.0-6.0-21.0,224,img/Cobalt.png,"""","""","""",false,-1,23.833882981998613,10,"""","""","""","2021-08-17 18:03:47",70.160.28.221,"Mozilla/5.0 (Windows NT 10.0; Win64; x64) AppleWebKit/537.36 (KHTML, like Gecko) Chrome/92.0.4515.131 Safari/537.36",WebKit,Chrome,92.0.4515.131,Windows,10.0,5f461dd6c139dd6b46c7596cbd57cd79
224,1,"""","""","""","""","""",sampler,28,238243,0.0-6.0-22.0,764,img/Cobalt.png,"""","""","""",false,-1,10.740933473711227,10,"""","""","""","2021-08-17 18:03:47",70.160.28.221,"Mozilla/5.0 (Windows NT 10.0; Win64; x64) AppleWebKit/537.36 (KHTML, like Gecko) Chrome/92.0.4515.131 Safari/537.36",WebKit,Chrome,92.0.4515.131,Windows,10.0,5f461dd6c139dd6b46c7596cbd57cd79
224,1,"""","""","""","""","""",sampler,29,238244,0.0-6.0-23.0,"""","""","""","""","""","""","""","""","""","""","""","""","2021-08-17 18:03:47",70.160.28.221,"Mozilla/5.0 (Windows NT 10.0; Win64; x64) AppleWebKit/537.36 (KHTML, like Gecko) Chrome/92.0.4515.131 Safari/537.36",WebKit,Chrome,92.0.4515.131,Windows,10.0,5f461dd6c139dd6b46c7596cbd57cd79
224,1,"""","""","""","""","""",sampler,30,238244,0.0-6.0-24.0,"""","""","""","""","""","""","""","""","""","""","""","""","2021-08-17 18:03:47",70.160.28.221,"Mozilla/5.0 (Windows NT 10.0; Win64; x64) AppleWebKit/537.36 (KHTML, like Gecko) Chrome/92.0.4515.131 Safari/537.36",WebKit,Chrome,92.0.4515.131,Windows,10.0,5f461dd6c139dd6b46c7596cbd57cd79
224,1,"""","""","""","""","""",sampler,31,238245,0.0-6.0-25.0,"""","""","""","""","""","""","""","""","""","""","""","""","2021-08-17 18:03:47",70.160.28.221,"Mozilla/5.0 (Windows NT 10.0; Win64; x64) AppleWebKit/537.36 (KHTML, like Gecko) Chrome/92.0.4515.131 Safari/537.36",WebKit,Chrome,92.0.4515.131,Windows,10.0,5f461dd6c139dd6b46c7596cbd57cd79
224,1,"""","""","""","""","""",sampler,32,238245,0.0-6.0-26.0,"""","""","""","""","""","""","""","""","""","""","""","""","2021-08-17 18:03:47",70.160.28.221,"Mozilla/5.0 (Windows NT 10.0; Win64; x64) AppleWebKit/537.36 (KHTML, like Gecko) Chrome/92.0.4515.131 Safari/537.36",WebKit,Chrome,92.0.4515.131,Windows,10.0,5f461dd6c139dd6b46c7596cbd57cd79
224,1,"""","""","""","""","""",sampler,33,238246,0.0-6.0-27.0,"""","""","""","""","""","""","""","""","""","""","""","""","2021-08-17 18:03:47",70.160.28.221,"Mozilla/5.0 (Windows NT 10.0; Win64; x64) AppleWebKit/537.36 (KHTML, like Gecko) Chrome/92.0.4515.131 Safari/537.36",WebKit,Chrome,92.0.4515.131,Windows,10.0,5f461dd6c139dd6b46c7596cbd57cd79
224,1,"""","""","""","""","""",sampler,34,238246,0.0-6.0-28.0,"""","""","""","""","""","""","""","""","""","""","""","""","2021-08-17 18:03:47",70.160.28.221,"Mozilla/5.0 (Windows NT 10.0; Win64; x64) AppleWebKit/537.36 (KHTML, like Gecko) Chrome/92.0.4515.131 Safari/537.36",WebKit,Chrome,92.0.4515.131,Windows,10.0,5f461dd6c139dd6b46c7596cbd57cd79
224,1,"""","""","""","""","""",sampler,35,238247,0.0-6.0-29.0,"""","""","""","""","""","""","""","""","""","""","""","""","2021-08-17 18:03:47",70.160.28.221,"Mozilla/5.0 (Windows NT 10.0; Win64; x64) AppleWebKit/537.36 (KHTML, like Gecko) Chrome/92.0.4515.131 Safari/537.36",WebKit,Chrome,92.0.4515.131,Windows,10.0,5f461dd6c139dd6b46c7596cbd57cd79
224,1,"""","""","""","""","""",sampler,36,238247,0.0-6.0-30.0,"""","""","""","""","""","""","""","""","""","""","""","""","2021-08-17 18:03:47",70.160.28.221,"Mozilla/5.0 (Windows NT 10.0; Win64; x64) AppleWebKit/537.36 (KHTML, like Gecko) Chrome/92.0.4515.131 Safari/537.36",WebKit,Chrome,92.0.4515.131,Windows,10.0,5f461dd6c139dd6b46c7596cbd57cd79
224,1,"""","""","""","""","""",sampler,37,238248,0.0-6.0-31.0,"""","""","""","""","""","""","""","""","""","""","""","""","2021-08-17 18:03:47",70.160.28.221,"Mozilla/5.0 (Windows NT 10.0; Win64; x64) AppleWebKit/537.36 (KHTML, like Gecko) Chrome/92.0.4515.131 Safari/537.36",WebKit,Chrome,92.0.4515.131,Windows,10.0,5f461dd6c139dd6b46c7596cbd57cd79
224,1,"""","""","""","""","""",sampler,38,238248,0.0-6.0-32.0,"""","""","""","""","""","""","""","""","""","""","""","""","2021-08-17 18:03:47",70.160.28.221,"Mozilla/5.0 (Windows NT 10.0; Win64; x64) AppleWebKit/537.36 (KHTML, like Gecko) Chrome/92.0.4515.131 Safari/537.36",WebKit,Chrome,92.0.4515.131,Windows,10.0,5f461dd6c139dd6b46c7596cbd57cd79
224,1,"""","""","""","""","""",sampler,39,238248,0.0-6.0-33.0,"""","""","""","""","""","""","""","""","""","""","""","""","2021-08-17 18:03:47",70.160.28.221,"Mozilla/5.0 (Windows NT 10.0; Win64; x64) AppleWebKit/537.36 (KHTML, like Gecko) Chrome/92.0.4515.131 Safari/537.36",WebKit,Chrome,92.0.4515.131,Windows,10.0,5f461dd6c139dd6b46c7596cbd57cd79
224,1,"""","""","""","""","""",sampler,40,238248,0.0-6.0-34.0,"""","""","""","""","""","""","""","""","""","""","""","""","2021-08-17 18:03:47",70.160.28.221,"Mozilla/5.0 (Windows NT 10.0; Win64; x64) AppleWebKit/537.36 (KHTML, like Gecko) Chrome/92.0.4515.131 Safari/537.36",WebKit,Chrome,92.0.4515.131,Windows,10.0,5f461dd6c139dd6b46c7596cbd57cd79
224,1,"""","""","""","""","""",sampler,41,238250,0.0-6.0-35.0,"""","""","""","""","""","""","""","""","""","""","""","""","2021-08-17 18:03:47",70.160.28.221,"Mozilla/5.0 (Windows NT 10.0; Win64; x64) AppleWebKit/537.36 (KHTML, like Gecko) Chrome/92.0.4515.131 Safari/537.36",WebKit,Chrome,92.0.4515.131,Windows,10.0,5f461dd6c139dd6b46c7596cbd57cd79
224,1,"""","""","""","""","""",sampler,42,238250,0.0-6.0-36.0,"""","""","""","""","""","""","""","""","""","""","""","""","2021-08-17 18:03:47",70.160.28.221,"Mozilla/5.0 (Windows NT 10.0; Win64; x64) AppleWebKit/537.36 (KHTML, like Gecko) Chrome/92.0.4515.131 Safari/537.36",WebKit,Chrome,92.0.4515.131,Windows,10.0,5f461dd6c139dd6b46c7596cbd57cd79
224,1,"""","""","""","""","""",sampler,43,238250,0.0-6.0-37.0,"""","""","""","""","""","""","""","""","""","""","""","""","2021-08-17 18:03:47",70.160.28.221,"Mozilla/5.0 (Windows NT 10.0; Win64; x64) AppleWebKit/537.36 (KHTML, like Gecko) Chrome/92.0.4515.131 Safari/537.36",WebKit,Chrome,92.0.4515.131,Windows,10.0,5f461dd6c139dd6b46c7596cbd57cd79
224,1,"""","""","""","""","""",sampler,44,238250,0.0-6.0-38.0,"""","""","""","""","""","""","""","""","""","""","""","""","2021-08-17 18:03:47",70.160.28.221,"Mozilla/5.0 (Windows NT 10.0; Win64; x64) AppleWebKit/537.36 (KHTML, like Gecko) Chrome/92.0.4515.131 Safari/537.36",WebKit,Chrome,92.0.4515.131,Windows,10.0,5f461dd6c139dd6b46c7596cbd57cd79
224,1,"""","""","""","""","""",sampler,45,238251,0.0-6.0-39.0,"""","""","""","""","""","""","""","""","""","""","""","""","2021-08-17 18:03:47",70.160.28.221,"Mozilla/5.0 (Windows NT 10.0; Win64; x64) AppleWebKit/537.36 (KHTML, like Gecko) Chrome/92.0.4515.131 Safari/537.36",WebKit,Chrome,92.0.4515.131,Windows,10.0,5f461dd6c139dd6b46c7596cbd57cd79
224,1,"""","""","""","""","""",sampler,46,238251,0.0-6.0-40.0,"""","""","""","""","""","""","""","""","""","""","""","""","2021-08-17 18:03:47",70.160.28.221,"Mozilla/5.0 (Windows NT 10.0; Win64; x64) AppleWebKit/537.36 (KHTML, like Gecko) Chrome/92.0.4515.131 Safari/537.36",WebKit,Chrome,92.0.4515.131,Windows,10.0,5f461dd6c139dd6b46c7596cbd57cd79
224,1,"""","""","""","""","""",sampler,47,238251,0.0-6.0-41.0,"""","""","""","""","""","""","""","""","""","""","""","""","2021-08-17 18:03:47",70.160.28.221,"Mozilla/5.0 (Windows NT 10.0; Win64; x64) AppleWebKit/537.36 (KHTML, like Gecko) Chrome/92.0.4515.131 Safari/537.36",WebKit,Chrome,92.0.4515.131,Windows,10.0,5f461dd6c139dd6b46c7596cbd57cd79
224,1,"""","""","""","""","""",sampler,48,238251,0.0-6.0-42.0,"""","""","""","""","""","""","""","""","""","""","""","""","2021-08-17 18:03:47",70.160.28.221,"Mozilla/5.0 (Windows NT 10.0; Win64; x64) AppleWebKit/537.36 (KHTML, like Gecko) Chrome/92.0.4515.131 Safari/537.36",WebKit,Chrome,92.0.4515.131,Windows,10.0,5f461dd6c139dd6b46c7596cbd57cd79
224,1,"""","""","""","""","""",sampler,49,238251,0.0-6.0-43.0,"""","""","""","""","""","""","""","""","""","""","""","""","2021-08-17 18:03:47",70.160.28.221,"Mozilla/5.0 (Windows NT 10.0; Win64; x64) AppleWebKit/537.36 (KHTML, like Gecko) Chrome/92.0.4515.131 Safari/537.36",WebKit,Chrome,92.0.4515.131,Windows,10.0,5f461dd6c139dd6b46c7596cbd57cd79
224,1,"""","""","""","""","""",sampler,50,238251,0.0-6.0-44.0,"""","""","""","""","""","""","""","""","""","""","""","""","2021-08-17 18:03:47",70.160.28.221,"Mozilla/5.0 (Windows NT 10.0; Win64; x64) AppleWebKit/537.36 (KHTML, like Gecko) Chrome/92.0.4515.131 Safari/537.36",WebKit,Chrome,92.0.4515.131,Windows,10.0,5f461dd6c139dd6b46c7596cbd57cd79
224,1,"""","""","""","""","""",sampler,51,238251,0.0-6.0-45.0,"""","""","""","""","""","""","""","""","""","""","""","""","2021-08-17 18:03:47",70.160.28.221,"Mozilla/5.0 (Windows NT 10.0; Win64; x64) AppleWebKit/537.36 (KHTML, like Gecko) Chrome/92.0.4515.131 Safari/537.36",WebKit,Chrome,92.0.4515.131,Windows,10.0,5f461dd6c139dd6b46c7596cbd57cd79
224,1,"""","""","""","""","""",sampler,52,238251,0.0-6.0-46.0,"""","""","""","""","""","""","""","""","""","""","""","""","2021-08-17 18:03:47",70.160.28.221,"Mozilla/5.0 (Windows NT 10.0; Win64; x64) AppleWebKit/537.36 (KHTML, like Gecko) Chrome/92.0.4515.131 Safari/537.36",WebKit,Chrome,92.0.4515.131,Windows,10.0,5f461dd6c139dd6b46c7596cbd57cd79
224,1,"""","""","""","""","""",sampler,53,238251,0.0-6.0-47.0,"""","""","""","""","""","""","""","""","""","""","""","""","2021-08-17 18:03:47",70.160.28.221,"Mozilla/5.0 (Windows NT 10.0; Win64; x64) AppleWebKit/537.36 (KHTML, like Gecko) Chrome/92.0.4515.131 Safari/537.36",WebKit,Chrome,92.0.4515.131,Windows,10.0,5f461dd6c139dd6b46c7596cbd57cd79
224,1,"""","""","""","""","""",sampler,54,238251,0.0-6.0-48.0,"""","""","""","""","""","""","""","""","""","""","""","""","2021-08-17 18:03:47",70.160.28.221,"Mozilla/5.0 (Windows NT 10.0; Win64; x64) AppleWebKit/537.36 (KHTML, like Gecko) Chrome/92.0.4515.131 Safari/537.36",WebKit,Chrome,92.0.4515.131,Windows,10.0,5f461dd6c139dd6b46c7596cbd57cd79
224,1,"""","""","""","""","""",sampler,55,238251,0.0-6.0-49.0,"""","""","""","""","""","""","""","""","""","""","""","""","2021-08-17 18:03:47",70.160.28.221,"Mozilla/5.0 (Windows NT 10.0; Win64; x64) AppleWebKit/537.36 (KHTML, like Gecko) Chrome/92.0.4515.131 Safari/537.36",WebKit,Chrome,92.0.4515.131,Windows,10.0,5f461dd6c139dd6b46c7596cbd57cd79
224,1,"""","""","""","""","""",sampler,56,238251,0.0-6.0-50.0,"""","""","""","""","""","""","""","""","""","""","""","""","2021-08-17 18:03:47",70.160.28.221,"Mozilla/5.0 (Windows NT 10.0; Win64; x64) AppleWebKit/537.36 (KHTML, like Gecko) Chrome/92.0.4515.131 Safari/537.36",WebKit,Chrome,92.0.4515.131,Windows,10.0,5f461dd6c139dd6b46c7596cbd57cd79
224,1,"""","""","""","""","""",sampler,57,238252,0.0-6.0-51.0,"""","""","""","""","""","""","""","""","""","""","""","""","2021-08-17 18:03:47",70.160.28.221,"Mozilla/5.0 (Windows NT 10.0; Win64; x64) AppleWebKit/537.36 (KHTML, like Gecko) Chrome/92.0.4515.131 Safari/537.36",WebKit,Chrome,92.0.4515.131,Windows,10.0,5f461dd6c139dd6b46c7596cbd57cd79
224,1,"""","""","""","""","""",sampler,58,238252,0.0-6.0-52.0,"""","""","""","""","""","""","""","""","""","""","""","""","2021-08-17 18:03:47",70.160.28.221,"Mozilla/5.0 (Windows NT 10.0; Win64; x64) AppleWebKit/537.36 (KHTML, like Gecko) Chrome/92.0.4515.131 Safari/537.36",WebKit,Chrome,92.0.4515.131,Windows,10.0,5f461dd6c139dd6b46c7596cbd57cd79
224,1,"""","""","""","""","""",sampler,59,238252,0.0-6.0-53.0,"""","""","""","""","""","""","""","""","""","""","""","""","2021-08-17 18:03:47",70.160.28.221,"Mozilla/5.0 (Windows NT 10.0; Win64; x64) AppleWebKit/537.36 (KHTML, like Gecko) Chrome/92.0.4515.131 Safari/537.36",WebKit,Chrome,92.0.4515.131,Windows,10.0,5f461dd6c139dd6b46c7596cbd57cd79
224,1,"""","""","""","""","""",sampler,60,238252,0.0-6.0-54.0,"""","""","""","""","""","""","""","""","""","""","""","""","2021-08-17 18:03:47",70.160.28.221,"Mozilla/5.0 (Windows NT 10.0; Win64; x64) AppleWebKit/537.36 (KHTML, like Gecko) Chrome/92.0.4515.131 Safari/537.36",WebKit,Chrome,92.0.4515.131,Windows,10.0,5f461dd6c139dd6b46c7596cbd57cd79
224,1,"""","""","""","""","""",sampler,61,238252,0.0-6.0-55.0,"""","""","""","""","""","""","""","""","""","""","""","""","2021-08-17 18:03:47",70.160.28.221,"Mozilla/5.0 (Windows NT 10.0; Win64; x64) AppleWebKit/537.36 (KHTML, like Gecko) Chrome/92.0.4515.131 Safari/537.36",WebKit,Chrome,92.0.4515.131,Windows,10.0,5f461dd6c139dd6b46c7596cbd57cd79
224,1,"""","""","""","""","""",sampler,62,238252,0.0-6.0-56.0,"""","""","""","""","""","""","""","""","""","""","""","""","2021-08-17 18:03:47",70.160.28.221,"Mozilla/5.0 (Windows NT 10.0; Win64; x64) AppleWebKit/537.36 (KHTML, like Gecko) Chrome/92.0.4515.131 Safari/537.36",WebKit,Chrome,92.0.4515.131,Windows,10.0,5f461dd6c139dd6b46c7596cbd57cd79
224,1,"""","""","""","""","""",sampler,63,238252,0.0-6.0-57.0,"""","""","""","""","""","""","""","""","""","""","""","""","2021-08-17 18:03:47",70.160.28.221,"Mozilla/5.0 (Windows NT 10.0; Win64; x64) AppleWebKit/537.36 (KHTML, like Gecko) Chrome/92.0.4515.131 Safari/537.36",WebKit,Chrome,92.0.4515.131,Windows,10.0,5f461dd6c139dd6b46c7596cbd57cd79
224,1,"""","""","""","""","""",sampler,64,238252,0.0-6.0-58.0,"""","""","""","""","""","""","""","""","""","""","""","""","2021-08-17 18:03:47",70.160.28.221,"Mozilla/5.0 (Windows NT 10.0; Win64; x64) AppleWebKit/537.36 (KHTML, like Gecko) Chrome/92.0.4515.131 Safari/537.36",WebKit,Chrome,92.0.4515.131,Windows,10.0,5f461dd6c139dd6b46c7596cbd57cd79
224,1,"""","""","""","""","""",sampler,65,238252,0.0-6.0-59.0,"""","""","""","""","""","""","""","""","""","""","""","""","2021-08-17 18:03:47",70.160.28.221,"Mozilla/5.0 (Windows NT 10.0; Win64; x64) AppleWebKit/537.36 (KHTML, like Gecko) Chrome/92.0.4515.131 Safari/537.36",WebKit,Chrome,92.0.4515.131,Windows,10.0,5f461dd6c139dd6b46c7596cbd57cd79
224,1,"""","""","""","""","""",sampler,66,238252,0.0-6.0-60.0,"""","""","""","""","""","""","""","""","""","""","""","""","2021-08-17 18:03:47",70.160.28.221,"Mozilla/5.0 (Windows NT 10.0; Win64; x64) AppleWebKit/537.36 (KHTML, like Gecko) Chrome/92.0.4515.131 Safari/537.36",WebKit,Chrome,92.0.4515.131,Windows,10.0,5f461dd6c139dd6b46c7596cbd57cd79
224,1,"""","""","""","""","""",sampler,67,238252,0.0-6.0-61.0,"""","""","""","""","""","""","""","""","""","""","""","""","2021-08-17 18:03:47",70.160.28.221,"Mozilla/5.0 (Windows NT 10.0; Win64; x64) AppleWebKit/537.36 (KHTML, like Gecko) Chrome/92.0.4515.131 Safari/537.36",WebKit,Chrome,92.0.4515.131,Windows,10.0,5f461dd6c139dd6b46c7596cbd57cd79
224,1,"""","""","""","""","""",sampler,68,238252,0.0-6.0-62.0,"""","""","""","""","""","""","""","""","""","""","""","""","2021-08-17 18:03:47",70.160.28.221,"Mozilla/5.0 (Windows NT 10.0; Win64; x64) AppleWebKit/537.36 (KHTML, like Gecko) Chrome/92.0.4515.131 Safari/537.36",WebKit,Chrome,92.0.4515.131,Windows,10.0,5f461dd6c139dd6b46c7596cbd57cd79
224,1,"""","""","""","""","""",sampler,69,238253,0.0-6.0-63.0,"""","""","""","""","""","""","""","""","""","""","""","""","2021-08-17 18:03:47",70.160.28.221,"Mozilla/5.0 (Windows NT 10.0; Win64; x64) AppleWebKit/537.36 (KHTML, like Gecko) Chrome/92.0.4515.131 Safari/537.36",WebKit,Chrome,92.0.4515.131,Windows,10.0,5f461dd6c139dd6b46c7596cbd57cd79
224,1,"""","""","""","""","""",sampler,70,238254,0.0-6.0-64.0,"""","""","""","""","""","""","""","""","""","""","""","""","2021-08-17 18:03:47",70.160.28.221,"Mozilla/5.0 (Windows NT 10.0; Win64; x64) AppleWebKit/537.36 (KHTML, like Gecko) Chrome/92.0.4515.131 Safari/537.36",WebKit,Chrome,92.0.4515.131,Windows,10.0,5f461dd6c139dd6b46c7596cbd57cd79
224,1,"""","""","""","""","""",sampler,71,238254,0.0-6.0-65.0,"""","""","""","""","""","""","""","""","""","""","""","""","2021-08-17 18:03:47",70.160.28.221,"Mozilla/5.0 (Windows NT 10.0; Win64; x64) AppleWebKit/537.36 (KHTML, like Gecko) Chrome/92.0.4515.131 Safari/537.36",WebKit,Chrome,92.0.4515.131,Windows,10.0,5f461dd6c139dd6b46c7596cbd57cd79
224,1,"""","""","""","""","""",sampler,72,238254,0.0-6.0-66.0,"""","""","""","""","""","""","""","""","""","""","""","""","2021-08-17 18:03:47",70.160.28.221,"Mozilla/5.0 (Windows NT 10.0; Win64; x64) AppleWebKit/537.36 (KHTML, like Gecko) Chrome/92.0.4515.131 Safari/537.36",WebKit,Chrome,92.0.4515.131,Windows,10.0,5f461dd6c139dd6b46c7596cbd57cd79
224,1,"""","""","""","""","""",sampler,73,238254,0.0-6.0-67.0,"""","""","""","""","""","""","""","""","""","""","""","""","2021-08-17 18:03:47",70.160.28.221,"Mozilla/5.0 (Windows NT 10.0; Win64; x64) AppleWebKit/537.36 (KHTML, like Gecko) Chrome/92.0.4515.131 Safari/537.36",WebKit,Chrome,92.0.4515.131,Windows,10.0,5f461dd6c139dd6b46c7596cbd57cd79
224,1,"""","""","""","""","""",sampler,74,238254,0.0-6.0-68.0,"""","""","""","""","""","""","""","""","""","""","""","""","2021-08-17 18:03:47",70.160.28.221,"Mozilla/5.0 (Windows NT 10.0; Win64; x64) AppleWebKit/537.36 (KHTML, like Gecko) Chrome/92.0.4515.131 Safari/537.36",WebKit,Chrome,92.0.4515.131,Windows,10.0,5f461dd6c139dd6b46c7596cbd57cd79
224,1,"""","""","""","""","""",sampler,75,238254,0.0-6.0-69.0,"""","""","""","""","""","""","""","""","""","""","""","""","2021-08-17 18:03:47",70.160.28.221,"Mozilla/5.0 (Windows NT 10.0; Win64; x64) AppleWebKit/537.36 (KHTML, like Gecko) Chrome/92.0.4515.131 Safari/537.36",WebKit,Chrome,92.0.4515.131,Windows,10.0,5f461dd6c139dd6b46c7596cbd57cd79
224,1,"""","""","""","""","""",sampler,76,238254,0.0-6.0-70.0,"""","""","""","""","""","""","""","""","""","""","""","""","2021-08-17 18:03:47",70.160.28.221,"Mozilla/5.0 (Windows NT 10.0; Win64; x64) AppleWebKit/537.36 (KHTML, like Gecko) Chrome/92.0.4515.131 Safari/537.36",WebKit,Chrome,92.0.4515.131,Windows,10.0,5f461dd6c139dd6b46c7596cbd57cd79
224,1,"""","""","""","""","""",sampler,77,238254,0.0-6.0-71.0,"""","""","""","""","""","""","""","""","""","""","""","""","2021-08-17 18:03:47",70.160.28.221,"Mozilla/5.0 (Windows NT 10.0; Win64; x64) AppleWebKit/537.36 (KHTML, like Gecko) Chrome/92.0.4515.131 Safari/537.36",WebKit,Chrome,92.0.4515.131,Windows,10.0,5f461dd6c139dd6b46c7596cbd57cd79
224,1,"""","""","""","""","""",sampler,78,238255,0.0-6.0-72.0,"""","""","""","""","""","""","""","""","""","""","""","""","2021-08-17 18:03:47",70.160.28.221,"Mozilla/5.0 (Windows NT 10.0; Win64; x64) AppleWebKit/537.36 (KHTML, like Gecko) Chrome/92.0.4515.131 Safari/537.36",WebKit,Chrome,92.0.4515.131,Windows,10.0,5f461dd6c139dd6b46c7596cbd57cd79
224,1,"""","""","""","""","""",sampler,79,238255,0.0-6.0-73.0,"""","""","""","""","""","""","""","""","""","""","""","""","2021-08-17 18:03:47",70.160.28.221,"Mozilla/5.0 (Windows NT 10.0; Win64; x64) AppleWebKit/537.36 (KHTML, like Gecko) Chrome/92.0.4515.131 Safari/537.36",WebKit,Chrome,92.0.4515.131,Windows,10.0,5f461dd6c139dd6b46c7596cbd57cd79
224,1,"""","""","""","""","""",sampler,80,238255,0.0-6.0-74.0,"""","""","""","""","""","""","""","""","""","""","""","""","2021-08-17 18:03:47",70.160.28.221,"Mozilla/5.0 (Windows NT 10.0; Win64; x64) AppleWebKit/537.36 (KHTML, like Gecko) Chrome/92.0.4515.131 Safari/537.36",WebKit,Chrome,92.0.4515.131,Windows,10.0,5f461dd6c139dd6b46c7596cbd57cd79
224,1,"""","""","""","""","""",sampler,81,238255,0.0-6.0-75.0,"""","""","""","""","""","""","""","""","""","""","""","""","2021-08-17 18:03:47",70.160.28.221,"Mozilla/5.0 (Windows NT 10.0; Win64; x64) AppleWebKit/537.36 (KHTML, like Gecko) Chrome/92.0.4515.131 Safari/537.36",WebKit,Chrome,92.0.4515.131,Windows,10.0,5f461dd6c139dd6b46c7596cbd57cd79
224,1,"""","""","""","""","""",sampler,82,238255,0.0-6.0-76.0,"""","""","""","""","""","""","""","""","""","""","""","""","2021-08-17 18:03:47",70.160.28.221,"Mozilla/5.0 (Windows NT 10.0; Win64; x64) AppleWebKit/537.36 (KHTML, like Gecko) Chrome/92.0.4515.131 Safari/537.36",WebKit,Chrome,92.0.4515.131,Windows,10.0,5f461dd6c139dd6b46c7596cbd57cd79
224,1,"""","""","""","""","""",sampler,83,238255,0.0-6.0-77.0,"""","""","""","""","""","""","""","""","""","""","""","""","2021-08-17 18:03:47",70.160.28.221,"Mozilla/5.0 (Windows NT 10.0; Win64; x64) AppleWebKit/537.36 (KHTML, like Gecko) Chrome/92.0.4515.131 Safari/537.36",WebKit,Chrome,92.0.4515.131,Windows,10.0,5f461dd6c139dd6b46c7596cbd57cd79
224,1,"""","""","""","""","""",sampler,84,238255,0.0-6.0-78.0,"""","""","""","""","""","""","""","""","""","""","""","""","2021-08-17 18:03:47",70.160.28.221,"Mozilla/5.0 (Windows NT 10.0; Win64; x64) AppleWebKit/537.36 (KHTML, like Gecko) Chrome/92.0.4515.131 Safari/537.36",WebKit,Chrome,92.0.4515.131,Windows,10.0,5f461dd6c139dd6b46c7596cbd57cd79
224,1,"""","""","""","""","""",sampler,85,238255,0.0-6.0-79.0,"""","""","""","""","""","""","""","""","""","""","""","""","2021-08-17 18:03:47",70.160.28.221,"Mozilla/5.0 (Windows NT 10.0; Win64; x64) AppleWebKit/537.36 (KHTML, like Gecko) Chrome/92.0.4515.131 Safari/537.36",WebKit,Chrome,92.0.4515.131,Windows,10.0,5f461dd6c139dd6b46c7596cbd57cd79
224,1,"""","""","""","""","""",sampler,86,238256,0.0-6.0-80.0,"""","""","""","""","""","""","""","""","""","""","""","""","2021-08-17 18:03:47",70.160.28.221,"Mozilla/5.0 (Windows NT 10.0; Win64; x64) AppleWebKit/537.36 (KHTML, like Gecko) Chrome/92.0.4515.131 Safari/537.36",WebKit,Chrome,92.0.4515.131,Windows,10.0,5f461dd6c139dd6b46c7596cbd57cd79
224,1,"""","""","""","""","""",sampler,87,238256,0.0-6.0-81.0,"""","""","""","""","""","""","""","""","""","""","""","""","2021-08-17 18:03:47",70.160.28.221,"Mozilla/5.0 (Windows NT 10.0; Win64; x64) AppleWebKit/537.36 (KHTML, like Gecko) Chrome/92.0.4515.131 Safari/537.36",WebKit,Chrome,92.0.4515.131,Windows,10.0,5f461dd6c139dd6b46c7596cbd57cd79
224,1,"""","""","""","""","""",sampler,88,238256,0.0-6.0-82.0,"""","""","""","""","""","""","""","""","""","""","""","""","2021-08-17 18:03:47",70.160.28.221,"Mozilla/5.0 (Windows NT 10.0; Win64; x64) AppleWebKit/537.36 (KHTML, like Gecko) Chrome/92.0.4515.131 Safari/537.36",WebKit,Chrome,92.0.4515.131,Windows,10.0,5f461dd6c139dd6b46c7596cbd57cd79
224,1,"""","""","""","""","""",sampler,89,238256,0.0-6.0-83.0,"""","""","""","""","""","""","""","""","""","""","""","""","2021-08-17 18:03:47",70.160.28.221,"Mozilla/5.0 (Windows NT 10.0; Win64; x64) AppleWebKit/537.36 (KHTML, like Gecko) Chrome/92.0.4515.131 Safari/537.36",WebKit,Chrome,92.0.4515.131,Windows,10.0,5f461dd6c139dd6b46c7596cbd57cd79
224,1,"""","""","""","""","""",sampler,90,238256,0.0-6.0-84.0,"""","""","""","""","""","""","""","""","""","""","""","""","2021-08-17 18:03:47",70.160.28.221,"Mozilla/5.0 (Windows NT 10.0; Win64; x64) AppleWebKit/537.36 (KHTML, like Gecko) Chrome/92.0.4515.131 Safari/537.36",WebKit,Chrome,92.0.4515.131,Windows,10.0,5f461dd6c139dd6b46c7596cbd57cd79
224,1,"""","""","""","""","""",sampler,91,238256,0.0-6.0-85.0,"""","""","""","""","""","""","""","""","""","""","""","""","2021-08-17 18:03:47",70.160.28.221,"Mozilla/5.0 (Windows NT 10.0; Win64; x64) AppleWebKit/537.36 (KHTML, like Gecko) Chrome/92.0.4515.131 Safari/537.36",WebKit,Chrome,92.0.4515.131,Windows,10.0,5f461dd6c139dd6b46c7596cbd57cd79
224,1,"""","""","""","""","""",sampler,92,238256,0.0-6.0-86.0,"""","""","""","""","""","""","""","""","""","""","""","""","2021-08-17 18:03:47",70.160.28.221,"Mozilla/5.0 (Windows NT 10.0; Win64; x64) AppleWebKit/537.36 (KHTML, like Gecko) Chrome/92.0.4515.131 Safari/537.36",WebKit,Chrome,92.0.4515.131,Windows,10.0,5f461dd6c139dd6b46c7596cbd57cd79
224,1,"""","""","""","""","""",sampler,93,238256,0.0-6.0-87.0,"""","""","""","""","""","""","""","""","""","""","""","""","2021-08-17 18:03:47",70.160.28.221,"Mozilla/5.0 (Windows NT 10.0; Win64; x64) AppleWebKit/537.36 (KHTML, like Gecko) Chrome/92.0.4515.131 Safari/537.36",WebKit,Chrome,92.0.4515.131,Windows,10.0,5f461dd6c139dd6b46c7596cbd57cd79
224,1,"""","""","""","""","""",sampler,94,238256,0.0-6.0-88.0,"""","""","""","""","""","""","""","""","""","""","""","""","2021-08-17 18:03:47",70.160.28.221,"Mozilla/5.0 (Windows NT 10.0; Win64; x64) AppleWebKit/537.36 (KHTML, like Gecko) Chrome/92.0.4515.131 Safari/537.36",WebKit,Chrome,92.0.4515.131,Windows,10.0,5f461dd6c139dd6b46c7596cbd57cd79
224,1,"""","""","""","""","""",sampler,95,238256,0.0-6.0-89.0,"""","""","""","""","""","""","""","""","""","""","""","""","2021-08-17 18:03:47",70.160.28.221,"Mozilla/5.0 (Windows NT 10.0; Win64; x64) AppleWebKit/537.36 (KHTML, like Gecko) Chrome/92.0.4515.131 Safari/537.36",WebKit,Chrome,92.0.4515.131,Windows,10.0,5f461dd6c139dd6b46c7596cbd57cd79
224,1,"""","""","""","""","""",sampler,96,238257,0.0-6.0-90.0,"""","""","""","""","""","""","""","""","""","""","""","""","2021-08-17 18:03:47",70.160.28.221,"Mozilla/5.0 (Windows NT 10.0; Win64; x64) AppleWebKit/537.36 (KHTML, like Gecko) Chrome/92.0.4515.131 Safari/537.36",WebKit,Chrome,92.0.4515.131,Windows,10.0,5f461dd6c139dd6b46c7596cbd57cd79
224,1,"""","""","""","""","""",sampler,97,238257,0.0-6.0-91.0,"""","""","""","""","""","""","""","""","""","""","""","""","2021-08-17 18:03:47",70.160.28.221,"Mozilla/5.0 (Windows NT 10.0; Win64; x64) AppleWebKit/537.36 (KHTML, like Gecko) Chrome/92.0.4515.131 Safari/537.36",WebKit,Chrome,92.0.4515.131,Windows,10.0,5f461dd6c139dd6b46c7596cbd57cd79
224,1,"""","""","""","""","""",sampler,98,238257,0.0-6.0-92.0,"""","""","""","""","""","""","""","""","""","""","""","""","2021-08-17 18:03:47",70.160.28.221,"Mozilla/5.0 (Windows NT 10.0; Win64; x64) AppleWebKit/537.36 (KHTML, like Gecko) Chrome/92.0.4515.131 Safari/537.36",WebKit,Chrome,92.0.4515.131,Windows,10.0,5f461dd6c139dd6b46c7596cbd57cd79
224,1,"""","""","""","""","""",sampler,99,238257,0.0-6.0-93.0,"""","""","""","""","""","""","""","""","""","""","""","""","2021-08-17 18:03:47",70.160.28.221,"Mozilla/5.0 (Windows NT 10.0; Win64; x64) AppleWebKit/537.36 (KHTML, like Gecko) Chrome/92.0.4515.131 Safari/537.36",WebKit,Chrome,92.0.4515.131,Windows,10.0,5f461dd6c139dd6b46c7596cbd57cd79
224,1,"""","""","""","""","""",sampler,100,238257,0.0-6.0-94.0,"""","""","""","""","""","""","""","""","""","""","""","""","2021-08-17 18:03:47",70.160.28.221,"Mozilla/5.0 (Windows NT 10.0; Win64; x64) AppleWebKit/537.36 (KHTML, like Gecko) Chrome/92.0.4515.131 Safari/537.36",WebKit,Chrome,92.0.4515.131,Windows,10.0,5f461dd6c139dd6b46c7596cbd57cd79
224,1,"""","""","""","""","""",sampler,101,238257,0.0-6.0-95.0,"""","""","""","""","""","""","""","""","""","""","""","""","2021-08-17 18:03:47",70.160.28.221,"Mozilla/5.0 (Windows NT 10.0; Win64; x64) AppleWebKit/537.36 (KHTML, like Gecko) Chrome/92.0.4515.131 Safari/537.36",WebKit,Chrome,92.0.4515.131,Windows,10.0,5f461dd6c139dd6b46c7596cbd57cd79
224,1,"""","""","""","""","""",sampler,102,238257,0.0-6.0-96.0,"""","""","""","""","""","""","""","""","""","""","""","""","2021-08-17 18:03:47",70.160.28.221,"Mozilla/5.0 (Windows NT 10.0; Win64; x64) AppleWebKit/537.36 (KHTML, like Gecko) Chrome/92.0.4515.131 Safari/537.36",WebKit,Chrome,92.0.4515.131,Windows,10.0,5f461dd6c139dd6b46c7596cbd57cd79
224,1,"""","""","""","""","""",sampler,103,238257,0.0-6.0-97.0,"""","""","""","""","""","""","""","""","""","""","""","""","2021-08-17 18:03:47",70.160.28.221,"Mozilla/5.0 (Windows NT 10.0; Win64; x64) AppleWebKit/537.36 (KHTML, like Gecko) Chrome/92.0.4515.131 Safari/537.36",WebKit,Chrome,92.0.4515.131,Windows,10.0,5f461dd6c139dd6b46c7596cbd57cd79
224,1,"""","""","""","""","""",sampler,104,238257,0.0-6.0-98.0,"""","""","""","""","""","""","""","""","""","""","""","""","2021-08-17 18:03:47",70.160.28.221,"Mozilla/5.0 (Windows NT 10.0; Win64; x64) AppleWebKit/537.36 (KHTML, like Gecko) Chrome/92.0.4515.131 Safari/537.36",WebKit,Chrome,92.0.4515.131,Windows,10.0,5f461dd6c139dd6b46c7596cbd57cd79
224,1,"""","""","""","""","""",sampler,105,238258,0.0-6.0-99.0,"""","""","""","""","""","""","""","""","""","""","""","""","2021-08-17 18:03:47",70.160.28.221,"Mozilla/5.0 (Windows NT 10.0; Win64; x64) AppleWebKit/537.36 (KHTML, like Gecko) Chrome/92.0.4515.131 Safari/537.36",WebKit,Chrome,92.0.4515.131,Windows,10.0,5f461dd6c139dd6b46c7596cbd57cd79
224,1,"""","""","""","""","""",sampler,106,238258,0.0-6.0-100.0,"""","""","""","""","""","""","""","""","""","""","""","""","2021-08-17 18:03:47",70.160.28.221,"Mozilla/5.0 (Windows NT 10.0; Win64; x64) AppleWebKit/537.36 (KHTML, like Gecko) Chrome/92.0.4515.131 Safari/537.36",WebKit,Chrome,92.0.4515.131,Windows,10.0,5f461dd6c139dd6b46c7596cbd57cd79
224,1,"""","""","""","""","""",sampler,107,238258,0.0-6.0-101.0,"""","""","""","""","""","""","""","""","""","""","""","""","2021-08-17 18:03:47",70.160.28.221,"Mozilla/5.0 (Windows NT 10.0; Win64; x64) AppleWebKit/537.36 (KHTML, like Gecko) Chrome/92.0.4515.131 Safari/537.36",WebKit,Chrome,92.0.4515.131,Windows,10.0,5f461dd6c139dd6b46c7596cbd57cd79
224,1,"""","""","""","""","""",sampler,108,238258,0.0-6.0-102.0,"""","""","""","""","""","""","""","""","""","""","""","""","2021-08-17 18:03:47",70.160.28.221,"Mozilla/5.0 (Windows NT 10.0; Win64; x64) AppleWebKit/537.36 (KHTML, like Gecko) Chrome/92.0.4515.131 Safari/537.36",WebKit,Chrome,92.0.4515.131,Windows,10.0,5f461dd6c139dd6b46c7596cbd57cd79
224,1,"""","""","""","""","""",sampler,109,238258,0.0-6.0-103.0,"""","""","""","""","""","""","""","""","""","""","""","""","2021-08-17 18:03:47",70.160.28.221,"Mozilla/5.0 (Windows NT 10.0; Win64; x64) AppleWebKit/537.36 (KHTML, like Gecko) Chrome/92.0.4515.131 Safari/537.36",WebKit,Chrome,92.0.4515.131,Windows,10.0,5f461dd6c139dd6b46c7596cbd57cd79
224,1,"""","""","""","""","""",sampler,110,238258,0.0-6.0-104.0,"""","""","""","""","""","""","""","""","""","""","""","""","2021-08-17 18:03:47",70.160.28.221,"Mozilla/5.0 (Windows NT 10.0; Win64; x64) AppleWebKit/537.36 (KHTML, like Gecko) Chrome/92.0.4515.131 Safari/537.36",WebKit,Chrome,92.0.4515.131,Windows,10.0,5f461dd6c139dd6b46c7596cbd57cd79
224,1,"""","""","""","""","""",sampler,111,238258,0.0-6.0-105.0,"""","""","""","""","""","""","""","""","""","""","""","""","2021-08-17 18:03:47",70.160.28.221,"Mozilla/5.0 (Windows NT 10.0; Win64; x64) AppleWebKit/537.36 (KHTML, like Gecko) Chrome/92.0.4515.131 Safari/537.36",WebKit,Chrome,92.0.4515.131,Windows,10.0,5f461dd6c139dd6b46c7596cbd57cd79
224,1,"""","""","""","""","""",sampler,112,238258,0.0-6.0-106.0,"""","""","""","""","""","""","""","""","""","""","""","""","2021-08-17 18:03:47",70.160.28.221,"Mozilla/5.0 (Windows NT 10.0; Win64; x64) AppleWebKit/537.36 (KHTML, like Gecko) Chrome/92.0.4515.131 Safari/537.36",WebKit,Chrome,92.0.4515.131,Windows,10.0,5f461dd6c139dd6b46c7596cbd57cd79
224,1,"""","""","""","""","""",sampler,113,238258,0.0-6.0-107.0,"""","""","""","""","""","""","""","""","""","""","""","""","2021-08-17 18:03:47",70.160.28.221,"Mozilla/5.0 (Windows NT 10.0; Win64; x64) AppleWebKit/537.36 (KHTML, like Gecko) Chrome/92.0.4515.131 Safari/537.36",WebKit,Chrome,92.0.4515.131,Windows,10.0,5f461dd6c139dd6b46c7596cbd57cd79
224,1,"""","""","""","""","""",sampler,114,238258,0.0-6.0-108.0,"""","""","""","""","""","""","""","""","""","""","""","""","2021-08-17 18:03:47",70.160.28.221,"Mozilla/5.0 (Windows NT 10.0; Win64; x64) AppleWebKit/537.36 (KHTML, like Gecko) Chrome/92.0.4515.131 Safari/537.36",WebKit,Chrome,92.0.4515.131,Windows,10.0,5f461dd6c139dd6b46c7596cbd57cd79
224,1,"""","""","""","""","""",sampler,115,238258,0.0-6.0-109.0,"""","""","""","""","""","""","""","""","""","""","""","""","2021-08-17 18:03:47",70.160.28.221,"Mozilla/5.0 (Windows NT 10.0; Win64; x64) AppleWebKit/537.36 (KHTML, like Gecko) Chrome/92.0.4515.131 Safari/537.36",WebKit,Chrome,92.0.4515.131,Windows,10.0,5f461dd6c139dd6b46c7596cbd57cd79
224,1,"""","""","""","""","""",sampler,116,238259,0.0-6.0-110.0,"""","""","""","""","""","""","""","""","""","""","""","""","2021-08-17 18:03:47",70.160.28.221,"Mozilla/5.0 (Windows NT 10.0; Win64; x64) AppleWebKit/537.36 (KHTML, like Gecko) Chrome/92.0.4515.131 Safari/537.36",WebKit,Chrome,92.0.4515.131,Windows,10.0,5f461dd6c139dd6b46c7596cbd57cd79
224,1,"""","""","""","""","""",sampler,117,238259,0.0-6.0-111.0,"""","""","""","""","""","""","""","""","""","""","""","""","2021-08-17 18:03:47",70.160.28.221,"Mozilla/5.0 (Windows NT 10.0; Win64; x64) AppleWebKit/537.36 (KHTML, like Gecko) Chrome/92.0.4515.131 Safari/537.36",WebKit,Chrome,92.0.4515.131,Windows,10.0,5f461dd6c139dd6b46c7596cbd57cd79
224,1,"""","""","""","""","""",sampler,118,238259,0.0-6.0-112.0,"""","""","""","""","""","""","""","""","""","""","""","""","2021-08-17 18:03:47",70.160.28.221,"Mozilla/5.0 (Windows NT 10.0; Win64; x64) AppleWebKit/537.36 (KHTML, like Gecko) Chrome/92.0.4515.131 Safari/537.36",WebKit,Chrome,92.0.4515.131,Windows,10.0,5f461dd6c139dd6b46c7596cbd57cd79
224,1,"""","""","""","""","""",sampler,119,238259,0.0-6.0-113.0,"""","""","""","""","""","""","""","""","""","""","""","""","2021-08-17 18:03:47",70.160.28.221,"Mozilla/5.0 (Windows NT 10.0; Win64; x64) AppleWebKit/537.36 (KHTML, like Gecko) Chrome/92.0.4515.131 Safari/537.36",WebKit,Chrome,92.0.4515.131,Windows,10.0,5f461dd6c139dd6b46c7596cbd57cd79
224,1,"""","""","""","""","""",sampler,120,238260,0.0-6.0-114.0,"""","""","""","""","""","""","""","""","""","""","""","""","2021-08-17 18:03:47",70.160.28.221,"Mozilla/5.0 (Windows NT 10.0; Win64; x64) AppleWebKit/537.36 (KHTML, like Gecko) Chrome/92.0.4515.131 Safari/537.36",WebKit,Chrome,92.0.4515.131,Windows,10.0,5f461dd6c139dd6b46c7596cbd57cd79
224,1,"""","""","""","""","""",sampler,121,238260,0.0-6.0-115.0,"""","""","""","""","""","""","""","""","""","""","""","""","2021-08-17 18:03:47",70.160.28.221,"Mozilla/5.0 (Windows NT 10.0; Win64; x64) AppleWebKit/537.36 (KHTML, like Gecko) Chrome/92.0.4515.131 Safari/537.36",WebKit,Chrome,92.0.4515.131,Windows,10.0,5f461dd6c139dd6b46c7596cbd57cd79
224,1,"""","""","""","""","""",sampler,122,238260,0.0-6.0-116.0,"""","""","""","""","""","""","""","""","""","""","""","""","2021-08-17 18:03:47",70.160.28.221,"Mozilla/5.0 (Windows NT 10.0; Win64; x64) AppleWebKit/537.36 (KHTML, like Gecko) Chrome/92.0.4515.131 Safari/537.36",WebKit,Chrome,92.0.4515.131,Windows,10.0,5f461dd6c139dd6b46c7596cbd57cd79
224,1,"""","""","""","""","""",sampler,123,238260,0.0-6.0-117.0,"""","""","""","""","""","""","""","""","""","""","""","""","2021-08-17 18:03:47",70.160.28.221,"Mozilla/5.0 (Windows NT 10.0; Win64; x64) AppleWebKit/537.36 (KHTML, like Gecko) Chrome/92.0.4515.131 Safari/537.36",WebKit,Chrome,92.0.4515.131,Windows,10.0,5f461dd6c139dd6b46c7596cbd57cd79
224,1,"""","""","""","""","""",sampler,124,238261,0.0-6.0-118.0,"""","""","""","""","""","""","""","""","""","""","""","""","2021-08-17 18:03:47",70.160.28.221,"Mozilla/5.0 (Windows NT 10.0; Win64; x64) AppleWebKit/537.36 (KHTML, like Gecko) Chrome/92.0.4515.131 Safari/537.36",WebKit,Chrome,92.0.4515.131,Windows,10.0,5f461dd6c139dd6b46c7596cbd57cd79
224,1,"""","""","""","""","""",sampler,125,238261,0.0-6.0-119.0,"""","""","""","""","""","""","""","""","""","""","""","""","2021-08-17 18:03:47",70.160.28.221,"Mozilla/5.0 (Windows NT 10.0; Win64; x64) AppleWebKit/537.36 (KHTML, like Gecko) Chrome/92.0.4515.131 Safari/537.36",WebKit,Chrome,92.0.4515.131,Windows,10.0,5f461dd6c139dd6b46c7596cbd57cd79
224,1,"""","""","""","""","""",sampler,126,238261,0.0-6.0-120.0,"""","""","""","""","""","""","""","""","""","""","""","""","2021-08-17 18:03:47",70.160.28.221,"Mozilla/5.0 (Windows NT 10.0; Win64; x64) AppleWebKit/537.36 (KHTML, like Gecko) Chrome/92.0.4515.131 Safari/537.36",WebKit,Chrome,92.0.4515.131,Windows,10.0,5f461dd6c139dd6b46c7596cbd57cd79
224,1,"""","""","""","""","""",sampler,127,238261,0.0-6.0-121.0,"""","""","""","""","""","""","""","""","""","""","""","""","2021-08-17 18:03:47",70.160.28.221,"Mozilla/5.0 (Windows NT 10.0; Win64; x64) AppleWebKit/537.36 (KHTML, like Gecko) Chrome/92.0.4515.131 Safari/537.36",WebKit,Chrome,92.0.4515.131,Windows,10.0,5f461dd6c139dd6b46c7596cbd57cd79
224,1,"""","""","""","""","""",sampler,128,238261,0.0-6.0-122.0,"""","""","""","""","""","""","""","""","""","""","""","""","2021-08-17 18:03:47",70.160.28.221,"Mozilla/5.0 (Windows NT 10.0; Win64; x64) AppleWebKit/537.36 (KHTML, like Gecko) Chrome/92.0.4515.131 Safari/537.36",WebKit,Chrome,92.0.4515.131,Windows,10.0,5f461dd6c139dd6b46c7596cbd57cd79
224,1,"""","""","""","""","""",sampler,129,238261,0.0-6.0-123.0,"""","""","""","""","""","""","""","""","""","""","""","""","2021-08-17 18:03:47",70.160.28.221,"Mozilla/5.0 (Windows NT 10.0; Win64; x64) AppleWebKit/537.36 (KHTML, like Gecko) Chrome/92.0.4515.131 Safari/537.36",WebKit,Chrome,92.0.4515.131,Windows,10.0,5f461dd6c139dd6b46c7596cbd57cd79
224,1,"""","""","""","""","""",sampler,130,238261,0.0-6.0-124.0,"""","""","""","""","""","""","""","""","""","""","""","""","2021-08-17 18:03:47",70.160.28.221,"Mozilla/5.0 (Windows NT 10.0; Win64; x64) AppleWebKit/537.36 (KHTML, like Gecko) Chrome/92.0.4515.131 Safari/537.36",WebKit,Chrome,92.0.4515.131,Windows,10.0,5f461dd6c139dd6b46c7596cbd57cd79
224,1,"""","""","""","""","""",sampler,131,238262,0.0-6.0-125.0,"""","""","""","""","""","""","""","""","""","""","""","""","2021-08-17 18:03:47",70.160.28.221,"Mozilla/5.0 (Windows NT 10.0; Win64; x64) AppleWebKit/537.36 (KHTML, like Gecko) Chrome/92.0.4515.131 Safari/537.36",WebKit,Chrome,92.0.4515.131,Windows,10.0,5f461dd6c139dd6b46c7596cbd57cd79
224,1,"""","""","""","""","""",sampler,132,238262,0.0-6.0-126.0,"""","""","""","""","""","""","""","""","""","""","""","""","2021-08-17 18:03:47",70.160.28.221,"Mozilla/5.0 (Windows NT 10.0; Win64; x64) AppleWebKit/537.36 (KHTML, like Gecko) Chrome/92.0.4515.131 Safari/537.36",WebKit,Chrome,92.0.4515.131,Windows,10.0,5f461dd6c139dd6b46c7596cbd57cd79
224,1,"""","""","""","""","""",sampler,133,238262,0.0-6.0-127.0,"""","""","""","""","""","""","""","""","""","""","""","""","2021-08-17 18:03:47",70.160.28.221,"Mozilla/5.0 (Windows NT 10.0; Win64; x64) AppleWebKit/537.36 (KHTML, like Gecko) Chrome/92.0.4515.131 Safari/537.36",WebKit,Chrome,92.0.4515.131,Windows,10.0,5f461dd6c139dd6b46c7596cbd57cd79
224,1,"""","""","""","""","""",sampler,134,238262,0.0-6.0-128.0,"""","""","""","""","""","""","""","""","""","""","""","""","2021-08-17 18:03:47",70.160.28.221,"Mozilla/5.0 (Windows NT 10.0; Win64; x64) AppleWebKit/537.36 (KHTML, like Gecko) Chrome/92.0.4515.131 Safari/537.36",WebKit,Chrome,92.0.4515.131,Windows,10.0,5f461dd6c139dd6b46c7596cbd57cd79
224,1,"""","""","""","""","""",sampler,135,238262,0.0-6.0-129.0,"""","""","""","""","""","""","""","""","""","""","""","""","2021-08-17 18:03:47",70.160.28.221,"Mozilla/5.0 (Windows NT 10.0; Win64; x64) AppleWebKit/537.36 (KHTML, like Gecko) Chrome/92.0.4515.131 Safari/537.36",WebKit,Chrome,92.0.4515.131,Windows,10.0,5f461dd6c139dd6b46c7596cbd57cd79
224,1,"""","""","""","""","""",sampler,136,238262,0.0-6.0-130.0,"""","""","""","""","""","""","""","""","""","""","""","""","2021-08-17 18:03:47",70.160.28.221,"Mozilla/5.0 (Windows NT 10.0; Win64; x64) AppleWebKit/537.36 (KHTML, like Gecko) Chrome/92.0.4515.131 Safari/537.36",WebKit,Chrome,92.0.4515.131,Windows,10.0,5f461dd6c139dd6b46c7596cbd57cd79
224,1,"""","""","""","""","""",sampler,137,238262,0.0-6.0-131.0,"""","""","""","""","""","""","""","""","""","""","""","""","2021-08-17 18:03:47",70.160.28.221,"Mozilla/5.0 (Windows NT 10.0; Win64; x64) AppleWebKit/537.36 (KHTML, like Gecko) Chrome/92.0.4515.131 Safari/537.36",WebKit,Chrome,92.0.4515.131,Windows,10.0,5f461dd6c139dd6b46c7596cbd57cd79
224,1,"""","""","""","""","""",sampler,138,238262,0.0-6.0-132.0,"""","""","""","""","""","""","""","""","""","""","""","""","2021-08-17 18:03:47",70.160.28.221,"Mozilla/5.0 (Windows NT 10.0; Win64; x64) AppleWebKit/537.36 (KHTML, like Gecko) Chrome/92.0.4515.131 Safari/537.36",WebKit,Chrome,92.0.4515.131,Windows,10.0,5f461dd6c139dd6b46c7596cbd57cd79
224,1,"""","""","""","""","""",sampler,139,238262,0.0-6.0-133.0,"""","""","""","""","""","""","""","""","""","""","""","""","2021-08-17 18:03:47",70.160.28.221,"Mozilla/5.0 (Windows NT 10.0; Win64; x64) AppleWebKit/537.36 (KHTML, like Gecko) Chrome/92.0.4515.131 Safari/537.36",WebKit,Chrome,92.0.4515.131,Windows,10.0,5f461dd6c139dd6b46c7596cbd57cd79
224,1,"""","""","""","""","""",sampler,140,238262,0.0-6.0-134.0,"""","""","""","""","""","""","""","""","""","""","""","""","2021-08-17 18:03:47",70.160.28.221,"Mozilla/5.0 (Windows NT 10.0; Win64; x64) AppleWebKit/537.36 (KHTML, like Gecko) Chrome/92.0.4515.131 Safari/537.36",WebKit,Chrome,92.0.4515.131,Windows,10.0,5f461dd6c139dd6b46c7596cbd57cd79
224,1,"""","""","""","""","""",sampler,141,238262,0.0-6.0-135.0,"""","""","""","""","""","""","""","""","""","""","""","""","2021-08-17 18:03:47",70.160.28.221,"Mozilla/5.0 (Windows NT 10.0; Win64; x64) AppleWebKit/537.36 (KHTML, like Gecko) Chrome/92.0.4515.131 Safari/537.36",WebKit,Chrome,92.0.4515.131,Windows,10.0,5f461dd6c139dd6b46c7596cbd57cd79
224,1,"""","""","""","""","""",sampler,142,238262,0.0-6.0-136.0,"""","""","""","""","""","""","""","""","""","""","""","""","2021-08-17 18:03:47",70.160.28.221,"Mozilla/5.0 (Windows NT 10.0; Win64; x64) AppleWebKit/537.36 (KHTML, like Gecko) Chrome/92.0.4515.131 Safari/537.36",WebKit,Chrome,92.0.4515.131,Windows,10.0,5f461dd6c139dd6b46c7596cbd57cd79
224,1,"""","""","""","""","""",sampler,143,238262,0.0-6.0-137.0,"""","""","""","""","""","""","""","""","""","""","""","""","2021-08-17 18:03:47",70.160.28.221,"Mozilla/5.0 (Windows NT 10.0; Win64; x64) AppleWebKit/537.36 (KHTML, like Gecko) Chrome/92.0.4515.131 Safari/537.36",WebKit,Chrome,92.0.4515.131,Windows,10.0,5f461dd6c139dd6b46c7596cbd57cd79
224,1,"""","""","""","""","""",sampler,144,238263,0.0-6.0-138.0,"""","""","""","""","""","""","""","""","""","""","""","""","2021-08-17 18:03:47",70.160.28.221,"Mozilla/5.0 (Windows NT 10.0; Win64; x64) AppleWebKit/537.36 (KHTML, like Gecko) Chrome/92.0.4515.131 Safari/537.36",WebKit,Chrome,92.0.4515.131,Windows,10.0,5f461dd6c139dd6b46c7596cbd57cd79
224,1,"""","""","""","""","""",sampler,145,238263,0.0-6.0-139.0,"""","""","""","""","""","""","""","""","""","""","""","""","2021-08-17 18:03:47",70.160.28.221,"Mozilla/5.0 (Windows NT 10.0; Win64; x64) AppleWebKit/537.36 (KHTML, like Gecko) Chrome/92.0.4515.131 Safari/537.36",WebKit,Chrome,92.0.4515.131,Windows,10.0,5f461dd6c139dd6b46c7596cbd57cd79
224,1,"""","""","""","""","""",sampler,146,238263,0.0-6.0-140.0,"""","""","""","""","""","""","""","""","""","""","""","""","2021-08-17 18:03:47",70.160.28.221,"Mozilla/5.0 (Windows NT 10.0; Win64; x64) AppleWebKit/537.36 (KHTML, like Gecko) Chrome/92.0.4515.131 Safari/537.36",WebKit,Chrome,92.0.4515.131,Windows,10.0,5f461dd6c139dd6b46c7596cbd57cd79
224,1,"""","""","""","""","""",sampler,147,238263,0.0-6.0-141.0,"""","""","""","""","""","""","""","""","""","""","""","""","2021-08-17 18:03:47",70.160.28.221,"Mozilla/5.0 (Windows NT 10.0; Win64; x64) AppleWebKit/537.36 (KHTML, like Gecko) Chrome/92.0.4515.131 Safari/537.36",WebKit,Chrome,92.0.4515.131,Windows,10.0,5f461dd6c139dd6b46c7596cbd57cd79
224,1,"""","""","""","""","""",sampler,148,238263,0.0-6.0-142.0,"""","""","""","""","""","""","""","""","""","""","""","""","2021-08-17 18:03:47",70.160.28.221,"Mozilla/5.0 (Windows NT 10.0; Win64; x64) AppleWebKit/537.36 (KHTML, like Gecko) Chrome/92.0.4515.131 Safari/537.36",WebKit,Chrome,92.0.4515.131,Windows,10.0,5f461dd6c139dd6b46c7596cbd57cd79
224,1,"""","""","""","""","""",sampler,149,238263,0.0-6.0-143.0,"""","""","""","""","""","""","""","""","""","""","""","""","2021-08-17 18:03:47",70.160.28.221,"Mozilla/5.0 (Windows NT 10.0; Win64; x64) AppleWebKit/537.36 (KHTML, like Gecko) Chrome/92.0.4515.131 Safari/537.36",WebKit,Chrome,92.0.4515.131,Windows,10.0,5f461dd6c139dd6b46c7596cbd57cd79
224,1,"""","""","""","""","""",sampler,150,238263,0.0-6.0-144.0,"""","""","""","""","""","""","""","""","""","""","""","""","2021-08-17 18:03:47",70.160.28.221,"Mozilla/5.0 (Windows NT 10.0; Win64; x64) AppleWebKit/537.36 (KHTML, like Gecko) Chrome/92.0.4515.131 Safari/537.36",WebKit,Chrome,92.0.4515.131,Windows,10.0,5f461dd6c139dd6b46c7596cbd57cd79
224,1,"""","""","""","""","""",sampler,151,238263,0.0-6.0-145.0,"""","""","""","""","""","""","""","""","""","""","""","""","2021-08-17 18:03:47",70.160.28.221,"Mozilla/5.0 (Windows NT 10.0; Win64; x64) AppleWebKit/537.36 (KHTML, like Gecko) Chrome/92.0.4515.131 Safari/537.36",WebKit,Chrome,92.0.4515.131,Windows,10.0,5f461dd6c139dd6b46c7596cbd57cd79
224,1,"""","""","""","""","""",sampler,152,238263,0.0-6.0-146.0,"""","""","""","""","""","""","""","""","""","""","""","""","2021-08-17 18:03:47",70.160.28.221,"Mozilla/5.0 (Windows NT 10.0; Win64; x64) AppleWebKit/537.36 (KHTML, like Gecko) Chrome/92.0.4515.131 Safari/537.36",WebKit,Chrome,92.0.4515.131,Windows,10.0,5f461dd6c139dd6b46c7596cbd57cd79
224,1,"""","""","""","""","""",sampler,153,238263,0.0-6.0-147.0,"""","""","""","""","""","""","""","""","""","""","""","""","2021-08-17 18:03:47",70.160.28.221,"Mozilla/5.0 (Windows NT 10.0; Win64; x64) AppleWebKit/537.36 (KHTML, like Gecko) Chrome/92.0.4515.131 Safari/537.36",WebKit,Chrome,92.0.4515.131,Windows,10.0,5f461dd6c139dd6b46c7596cbd57cd79
224,1,"""","""","""","""","""",sampler,154,238263,0.0-6.0-148.0,"""","""","""","""","""","""","""","""","""","""","""","""","2021-08-17 18:03:47",70.160.28.221,"Mozilla/5.0 (Windows NT 10.0; Win64; x64) AppleWebKit/537.36 (KHTML, like Gecko) Chrome/92.0.4515.131 Safari/537.36",WebKit,Chrome,92.0.4515.131,Windows,10.0,5f461dd6c139dd6b46c7596cbd57cd79
224,1,"""","""","""","""","""",sampler,155,238264,0.0-6.0-149.0,"""","""","""","""","""","""","""","""","""","""","""","""","2021-08-17 18:03:47",70.160.28.221,"Mozilla/5.0 (Windows NT 10.0; Win64; x64) AppleWebKit/537.36 (KHTML, like Gecko) Chrome/92.0.4515.131 Safari/537.36",WebKit,Chrome,92.0.4515.131,Windows,10.0,5f461dd6c139dd6b46c7596cbd57cd79
224,1,"""","""","""","""","""",sampler,156,238264,0.0-6.0-150.0,"""","""","""","""","""","""","""","""","""","""","""","""","2021-08-17 18:03:47",70.160.28.221,"Mozilla/5.0 (Windows NT 10.0; Win64; x64) AppleWebKit/537.36 (KHTML, like Gecko) Chrome/92.0.4515.131 Safari/537.36",WebKit,Chrome,92.0.4515.131,Windows,10.0,5f461dd6c139dd6b46c7596cbd57cd79
224,1,"""","""","""","""","""",sampler,157,238264,0.0-6.0-151.0,"""","""","""","""","""","""","""","""","""","""","""","""","2021-08-17 18:03:47",70.160.28.221,"Mozilla/5.0 (Windows NT 10.0; Win64; x64) AppleWebKit/537.36 (KHTML, like Gecko) Chrome/92.0.4515.131 Safari/537.36",WebKit,Chrome,92.0.4515.131,Windows,10.0,5f461dd6c139dd6b46c7596cbd57cd79
224,1,"""","""","""","""","""",sampler,158,238264,0.0-6.0-152.0,"""","""","""","""","""","""","""","""","""","""","""","""","2021-08-17 18:03:47",70.160.28.221,"Mozilla/5.0 (Windows NT 10.0; Win64; x64) AppleWebKit/537.36 (KHTML, like Gecko) Chrome/92.0.4515.131 Safari/537.36",WebKit,Chrome,92.0.4515.131,Windows,10.0,5f461dd6c139dd6b46c7596cbd57cd79
224,1,"""","""","""","""","""",sampler,159,238264,0.0-6.0-153.0,"""","""","""","""","""","""","""","""","""","""","""","""","2021-08-17 18:03:47",70.160.28.221,"Mozilla/5.0 (Windows NT 10.0; Win64; x64) AppleWebKit/537.36 (KHTML, like Gecko) Chrome/92.0.4515.131 Safari/537.36",WebKit,Chrome,92.0.4515.131,Windows,10.0,5f461dd6c139dd6b46c7596cbd57cd79
224,1,"""","""","""","""","""",sampler,160,238264,0.0-6.0-154.0,"""","""","""","""","""","""","""","""","""","""","""","""","2021-08-17 18:03:47",70.160.28.221,"Mozilla/5.0 (Windows NT 10.0; Win64; x64) AppleWebKit/537.36 (KHTML, like Gecko) Chrome/92.0.4515.131 Safari/537.36",WebKit,Chrome,92.0.4515.131,Windows,10.0,5f461dd6c139dd6b46c7596cbd57cd79
224,1,"""","""","""","""","""",sampler,161,238264,0.0-6.0-155.0,"""","""","""","""","""","""","""","""","""","""","""","""","2021-08-17 18:03:47",70.160.28.221,"Mozilla/5.0 (Windows NT 10.0; Win64; x64) AppleWebKit/537.36 (KHTML, like Gecko) Chrome/92.0.4515.131 Safari/537.36",WebKit,Chrome,92.0.4515.131,Windows,10.0,5f461dd6c139dd6b46c7596cbd57cd79
224,1,"""","""","""","""","""",sampler,162,238264,0.0-6.0-156.0,"""","""","""","""","""","""","""","""","""","""","""","""","2021-08-17 18:03:47",70.160.28.221,"Mozilla/5.0 (Windows NT 10.0; Win64; x64) AppleWebKit/537.36 (KHTML, like Gecko) Chrome/92.0.4515.131 Safari/537.36",WebKit,Chrome,92.0.4515.131,Windows,10.0,5f461dd6c139dd6b46c7596cbd57cd79
224,1,"""","""","""","""","""",sampler,163,238264,0.0-6.0-157.0,"""","""","""","""","""","""","""","""","""","""","""","""","2021-08-17 18:03:47",70.160.28.221,"Mozilla/5.0 (Windows NT 10.0; Win64; x64) AppleWebKit/537.36 (KHTML, like Gecko) Chrome/92.0.4515.131 Safari/537.36",WebKit,Chrome,92.0.4515.131,Windows,10.0,5f461dd6c139dd6b46c7596cbd57cd79
224,1,"""","""","""","""","""",sampler,164,238264,0.0-6.0-158.0,"""","""","""","""","""","""","""","""","""","""","""","""","2021-08-17 18:03:47",70.160.28.221,"Mozilla/5.0 (Windows NT 10.0; Win64; x64) AppleWebKit/537.36 (KHTML, like Gecko) Chrome/92.0.4515.131 Safari/537.36",WebKit,Chrome,92.0.4515.131,Windows,10.0,5f461dd6c139dd6b46c7596cbd57cd79
224,1,"""","""","""","""","""",sampler,165,238265,0.0-6.0-159.0,"""","""","""","""","""","""","""","""","""","""","""","""","2021-08-17 18:03:47",70.160.28.221,"Mozilla/5.0 (Windows NT 10.0; Win64; x64) AppleWebKit/537.36 (KHTML, like Gecko) Chrome/92.0.4515.131 Safari/537.36",WebKit,Chrome,92.0.4515.131,Windows,10.0,5f461dd6c139dd6b46c7596cbd57cd79
224,1,"""","""","""","""","""",sampler,166,238265,0.0-6.0-160.0,"""","""","""","""","""","""","""","""","""","""","""","""","2021-08-17 18:03:47",70.160.28.221,"Mozilla/5.0 (Windows NT 10.0; Win64; x64) AppleWebKit/537.36 (KHTML, like Gecko) Chrome/92.0.4515.131 Safari/537.36",WebKit,Chrome,92.0.4515.131,Windows,10.0,5f461dd6c139dd6b46c7596cbd57cd79
224,1,"""","""","""","""","""",sampler,167,238265,0.0-6.0-161.0,"""","""","""","""","""","""","""","""","""","""","""","""","2021-08-17 18:03:47",70.160.28.221,"Mozilla/5.0 (Windows NT 10.0; Win64; x64) AppleWebKit/537.36 (KHTML, like Gecko) Chrome/92.0.4515.131 Safari/537.36",WebKit,Chrome,92.0.4515.131,Windows,10.0,5f461dd6c139dd6b46c7596cbd57cd79
224,1,"""","""","""","""","""",sampler,168,238265,0.0-6.0-162.0,"""","""","""","""","""","""","""","""","""","""","""","""","2021-08-17 18:03:47",70.160.28.221,"Mozilla/5.0 (Windows NT 10.0; Win64; x64) AppleWebKit/537.36 (KHTML, like Gecko) Chrome/92.0.4515.131 Safari/537.36",WebKit,Chrome,92.0.4515.131,Windows,10.0,5f461dd6c139dd6b46c7596cbd57cd79
224,1,"""","""","""","""","""",sampler,169,238265,0.0-6.0-163.0,"""","""","""","""","""","""","""","""","""","""","""","""","2021-08-17 18:03:47",70.160.28.221,"Mozilla/5.0 (Windows NT 10.0; Win64; x64) AppleWebKit/537.36 (KHTML, like Gecko) Chrome/92.0.4515.131 Safari/537.36",WebKit,Chrome,92.0.4515.131,Windows,10.0,5f461dd6c139dd6b46c7596cbd57cd79
224,1,"""","""","""","""","""",sampler,170,238266,0.0-6.0-164.0,"""","""","""","""","""","""","""","""","""","""","""","""","2021-08-17 18:03:47",70.160.28.221,"Mozilla/5.0 (Windows NT 10.0; Win64; x64) AppleWebKit/537.36 (KHTML, like Gecko) Chrome/92.0.4515.131 Safari/537.36",WebKit,Chrome,92.0.4515.131,Windows,10.0,5f461dd6c139dd6b46c7596cbd57cd79
224,1,"""","""","""","""","""",sampler,171,238266,0.0-6.0-165.0,"""","""","""","""","""","""","""","""","""","""","""","""","2021-08-17 18:03:47",70.160.28.221,"Mozilla/5.0 (Windows NT 10.0; Win64; x64) AppleWebKit/537.36 (KHTML, like Gecko) Chrome/92.0.4515.131 Safari/537.36",WebKit,Chrome,92.0.4515.131,Windows,10.0,5f461dd6c139dd6b46c7596cbd57cd79
224,1,"""","""","""","""","""",sampler,172,238266,0.0-6.0-166.0,"""","""","""","""","""","""","""","""","""","""","""","""","2021-08-17 18:03:47",70.160.28.221,"Mozilla/5.0 (Windows NT 10.0; Win64; x64) AppleWebKit/537.36 (KHTML, like Gecko) Chrome/92.0.4515.131 Safari/537.36",WebKit,Chrome,92.0.4515.131,Windows,10.0,5f461dd6c139dd6b46c7596cbd57cd79
224,1,"""","""","""","""","""",sampler,173,238266,0.0-6.0-167.0,"""","""","""","""","""","""","""","""","""","""","""","""","2021-08-17 18:03:47",70.160.28.221,"Mozilla/5.0 (Windows NT 10.0; Win64; x64) AppleWebKit/537.36 (KHTML, like Gecko) Chrome/92.0.4515.131 Safari/537.36",WebKit,Chrome,92.0.4515.131,Windows,10.0,5f461dd6c139dd6b46c7596cbd57cd79
224,1,"""","""","""","""","""",sampler,174,238266,0.0-6.0-168.0,"""","""","""","""","""","""","""","""","""","""","""","""","2021-08-17 18:03:47",70.160.28.221,"Mozilla/5.0 (Windows NT 10.0; Win64; x64) AppleWebKit/537.36 (KHTML, like Gecko) Chrome/92.0.4515.131 Safari/537.36",WebKit,Chrome,92.0.4515.131,Windows,10.0,5f461dd6c139dd6b46c7596cbd57cd79
224,1,"""","""","""","""","""",sampler,175,238266,0.0-6.0-169.0,"""","""","""","""","""","""","""","""","""","""","""","""","2021-08-17 18:03:47",70.160.28.221,"Mozilla/5.0 (Windows NT 10.0; Win64; x64) AppleWebKit/537.36 (KHTML, like Gecko) Chrome/92.0.4515.131 Safari/537.36",WebKit,Chrome,92.0.4515.131,Windows,10.0,5f461dd6c139dd6b46c7596cbd57cd79
224,1,"""","""","""","""","""",sampler,176,238266,0.0-6.0-170.0,"""","""","""","""","""","""","""","""","""","""","""","""","2021-08-17 18:03:47",70.160.28.221,"Mozilla/5.0 (Windows NT 10.0; Win64; x64) AppleWebKit/537.36 (KHTML, like Gecko) Chrome/92.0.4515.131 Safari/537.36",WebKit,Chrome,92.0.4515.131,Windows,10.0,5f461dd6c139dd6b46c7596cbd57cd79
224,1,"""","""","""","""","""",sampler,177,238266,0.0-6.0-171.0,"""","""","""","""","""","""","""","""","""","""","""","""","2021-08-17 18:03:47",70.160.28.221,"Mozilla/5.0 (Windows NT 10.0; Win64; x64) AppleWebKit/537.36 (KHTML, like Gecko) Chrome/92.0.4515.131 Safari/537.36",WebKit,Chrome,92.0.4515.131,Windows,10.0,5f461dd6c139dd6b46c7596cbd57cd79
224,1,"""","""","""","""","""",sampler,178,238266,0.0-6.0-172.0,"""","""","""","""","""","""","""","""","""","""","""","""","2021-08-17 18:03:47",70.160.28.221,"Mozilla/5.0 (Windows NT 10.0; Win64; x64) AppleWebKit/537.36 (KHTML, like Gecko) Chrome/92.0.4515.131 Safari/537.36",WebKit,Chrome,92.0.4515.131,Windows,10.0,5f461dd6c139dd6b46c7596cbd57cd79
224,1,"""","""","""","""","""",sampler,179,238266,0.0-6.0-173.0,"""","""","""","""","""","""","""","""","""","""","""","""","2021-08-17 18:03:47",70.160.28.221,"Mozilla/5.0 (Windows NT 10.0; Win64; x64) AppleWebKit/537.36 (KHTML, like Gecko) Chrome/92.0.4515.131 Safari/537.36",WebKit,Chrome,92.0.4515.131,Windows,10.0,5f461dd6c139dd6b46c7596cbd57cd79
224,1,"""","""","""","""","""",sampler,180,238266,0.0-6.0-174.0,"""","""","""","""","""","""","""","""","""","""","""","""","2021-08-17 18:03:47",70.160.28.221,"Mozilla/5.0 (Windows NT 10.0; Win64; x64) AppleWebKit/537.36 (KHTML, like Gecko) Chrome/92.0.4515.131 Safari/537.36",WebKit,Chrome,92.0.4515.131,Windows,10.0,5f461dd6c139dd6b46c7596cbd57cd79
224,1,"""","""","""","""","""",sampler,181,238267,0.0-6.0-175.0,"""","""","""","""","""","""","""","""","""","""","""","""","2021-08-17 18:03:47",70.160.28.221,"Mozilla/5.0 (Windows NT 10.0; Win64; x64) AppleWebKit/537.36 (KHTML, like Gecko) Chrome/92.0.4515.131 Safari/537.36",WebKit,Chrome,92.0.4515.131,Windows,10.0,5f461dd6c139dd6b46c7596cbd57cd79
224,1,"""","""","""","""","""",sampler,182,238267,0.0-6.0-176.0,"""","""","""","""","""","""","""","""","""","""","""","""","2021-08-17 18:03:47",70.160.28.221,"Mozilla/5.0 (Windows NT 10.0; Win64; x64) AppleWebKit/537.36 (KHTML, like Gecko) Chrome/92.0.4515.131 Safari/537.36",WebKit,Chrome,92.0.4515.131,Windows,10.0,5f461dd6c139dd6b46c7596cbd57cd79
224,1,"""","""","""","""","""",sampler,183,238267,0.0-6.0-177.0,"""","""","""","""","""","""","""","""","""","""","""","""","2021-08-17 18:03:47",70.160.28.221,"Mozilla/5.0 (Windows NT 10.0; Win64; x64) AppleWebKit/537.36 (KHTML, like Gecko) Chrome/92.0.4515.131 Safari/537.36",WebKit,Chrome,92.0.4515.131,Windows,10.0,5f461dd6c139dd6b46c7596cbd57cd79
224,1,"""","""","""","""","""",sampler,184,238267,0.0-6.0-178.0,"""","""","""","""","""","""","""","""","""","""","""","""","2021-08-17 18:03:47",70.160.28.221,"Mozilla/5.0 (Windows NT 10.0; Win64; x64) AppleWebKit/537.36 (KHTML, like Gecko) Chrome/92.0.4515.131 Safari/537.36",WebKit,Chrome,92.0.4515.131,Windows,10.0,5f461dd6c139dd6b46c7596cbd57cd79
224,1,"""","""","""","""","""",sampler,185,238267,0.0-6.0-179.0,"""","""","""","""","""","""","""","""","""","""","""","""","2021-08-17 18:03:47",70.160.28.221,"Mozilla/5.0 (Windows NT 10.0; Win64; x64) AppleWebKit/537.36 (KHTML, like Gecko) Chrome/92.0.4515.131 Safari/537.36",WebKit,Chrome,92.0.4515.131,Windows,10.0,5f461dd6c139dd6b46c7596cbd57cd79
224,1,"""","""","""","""","""",sampler,186,238267,0.0-6.0-180.0,"""","""","""","""","""","""","""","""","""","""","""","""","2021-08-17 18:03:47",70.160.28.221,"Mozilla/5.0 (Windows NT 10.0; Win64; x64) AppleWebKit/537.36 (KHTML, like Gecko) Chrome/92.0.4515.131 Safari/537.36",WebKit,Chrome,92.0.4515.131,Windows,10.0,5f461dd6c139dd6b46c7596cbd57cd79
224,1,"""","""","""","""","""",sampler,187,238267,0.0-6.0-181.0,"""","""","""","""","""","""","""","""","""","""","""","""","2021-08-17 18:03:47",70.160.28.221,"Mozilla/5.0 (Windows NT 10.0; Win64; x64) AppleWebKit/537.36 (KHTML, like Gecko) Chrome/92.0.4515.131 Safari/537.36",WebKit,Chrome,92.0.4515.131,Windows,10.0,5f461dd6c139dd6b46c7596cbd57cd79
224,1,"""","""","""","""","""",sampler,188,238267,0.0-6.0-182.0,"""","""","""","""","""","""","""","""","""","""","""","""","2021-08-17 18:03:47",70.160.28.221,"Mozilla/5.0 (Windows NT 10.0; Win64; x64) AppleWebKit/537.36 (KHTML, like Gecko) Chrome/92.0.4515.131 Safari/537.36",WebKit,Chrome,92.0.4515.131,Windows,10.0,5f461dd6c139dd6b46c7596cbd57cd79
224,1,"""","""","""","""","""",sampler,189,238267,0.0-6.0-183.0,"""","""","""","""","""","""","""","""","""","""","""","""","2021-08-17 18:03:47",70.160.28.221,"Mozilla/5.0 (Windows NT 10.0; Win64; x64) AppleWebKit/537.36 (KHTML, like Gecko) Chrome/92.0.4515.131 Safari/537.36",WebKit,Chrome,92.0.4515.131,Windows,10.0,5f461dd6c139dd6b46c7596cbd57cd79
224,1,"""","""","""","""","""",sampler,190,238267,0.0-6.0-184.0,"""","""","""","""","""","""","""","""","""","""","""","""","2021-08-17 18:03:47",70.160.28.221,"Mozilla/5.0 (Windows NT 10.0; Win64; x64) AppleWebKit/537.36 (KHTML, like Gecko) Chrome/92.0.4515.131 Safari/537.36",WebKit,Chrome,92.0.4515.131,Windows,10.0,5f461dd6c139dd6b46c7596cbd57cd79
224,1,"""","""","""","""","""",sampler,191,238267,0.0-6.0-185.0,"""","""","""","""","""","""","""","""","""","""","""","""","2021-08-17 18:03:47",70.160.28.221,"Mozilla/5.0 (Windows NT 10.0; Win64; x64) AppleWebKit/537.36 (KHTML, like Gecko) Chrome/92.0.4515.131 Safari/537.36",WebKit,Chrome,92.0.4515.131,Windows,10.0,5f461dd6c139dd6b46c7596cbd57cd79
224,1,"""","""","""","""","""",sampler,192,238267,0.0-6.0-186.0,"""","""","""","""","""","""","""","""","""","""","""","""","2021-08-17 18:03:47",70.160.28.221,"Mozilla/5.0 (Windows NT 10.0; Win64; x64) AppleWebKit/537.36 (KHTML, like Gecko) Chrome/92.0.4515.131 Safari/537.36",WebKit,Chrome,92.0.4515.131,Windows,10.0,5f461dd6c139dd6b46c7596cbd57cd79
224,1,"""","""","""","""","""",sampler,193,238268,0.0-6.0-187.0,"""","""","""","""","""","""","""","""","""","""","""","""","2021-08-17 18:03:47",70.160.28.221,"Mozilla/5.0 (Windows NT 10.0; Win64; x64) AppleWebKit/537.36 (KHTML, like Gecko) Chrome/92.0.4515.131 Safari/537.36",WebKit,Chrome,92.0.4515.131,Windows,10.0,5f461dd6c139dd6b46c7596cbd57cd79
224,1,"""","""","""","""","""",sampler,194,238268,0.0-6.0-188.0,"""","""","""","""","""","""","""","""","""","""","""","""","2021-08-17 18:03:47",70.160.28.221,"Mozilla/5.0 (Windows NT 10.0; Win64; x64) AppleWebKit/537.36 (KHTML, like Gecko) Chrome/92.0.4515.131 Safari/537.36",WebKit,Chrome,92.0.4515.131,Windows,10.0,5f461dd6c139dd6b46c7596cbd57cd79
224,1,"""","""","""","""","""",sampler,195,238268,0.0-6.0-189.0,"""","""","""","""","""","""","""","""","""","""","""","""","2021-08-17 18:03:47",70.160.28.221,"Mozilla/5.0 (Windows NT 10.0; Win64; x64) AppleWebKit/537.36 (KHTML, like Gecko) Chrome/92.0.4515.131 Safari/537.36",WebKit,Chrome,92.0.4515.131,Windows,10.0,5f461dd6c139dd6b46c7596cbd57cd79
224,1,"""","""","""","""","""",sampler,196,238268,0.0-6.0-190.0,"""","""","""","""","""","""","""","""","""","""","""","""","2021-08-17 18:03:47",70.160.28.221,"Mozilla/5.0 (Windows NT 10.0; Win64; x64) AppleWebKit/537.36 (KHTML, like Gecko) Chrome/92.0.4515.131 Safari/537.36",WebKit,Chrome,92.0.4515.131,Windows,10.0,5f461dd6c139dd6b46c7596cbd57cd79
224,1,"""","""","""","""","""",sampler,197,238268,0.0-6.0-191.0,"""","""","""","""","""","""","""","""","""","""","""","""","2021-08-17 18:03:47",70.160.28.221,"Mozilla/5.0 (Windows NT 10.0; Win64; x64) AppleWebKit/537.36 (KHTML, like Gecko) Chrome/92.0.4515.131 Safari/537.36",WebKit,Chrome,92.0.4515.131,Windows,10.0,5f461dd6c139dd6b46c7596cbd57cd79
224,1,"""","""","""","""","""",sampler,198,238268,0.0-6.0-192.0,"""","""","""","""","""","""","""","""","""","""","""","""","2021-08-17 18:03:47",70.160.28.221,"Mozilla/5.0 (Windows NT 10.0; Win64; x64) AppleWebKit/537.36 (KHTML, like Gecko) Chrome/92.0.4515.131 Safari/537.36",WebKit,Chrome,92.0.4515.131,Windows,10.0,5f461dd6c139dd6b46c7596cbd57cd79
224,1,"""","""","""","""","""",sampler,199,238268,0.0-6.0-193.0,"""","""","""","""","""","""","""","""","""","""","""","""","2021-08-17 18:03:47",70.160.28.221,"Mozilla/5.0 (Windows NT 10.0; Win64; x64) AppleWebKit/537.36 (KHTML, like Gecko) Chrome/92.0.4515.131 Safari/537.36",WebKit,Chrome,92.0.4515.131,Windows,10.0,5f461dd6c139dd6b46c7596cbd57cd79
224,1,"""","""","""","""","""",sampler,200,238268,0.0-6.0-194.0,"""","""","""","""","""","""","""","""","""","""","""","""","2021-08-17 18:03:47",70.160.28.221,"Mozilla/5.0 (Windows NT 10.0; Win64; x64) AppleWebKit/537.36 (KHTML, like Gecko) Chrome/92.0.4515.131 Safari/537.36",WebKit,Chrome,92.0.4515.131,Windows,10.0,5f461dd6c139dd6b46c7596cbd57cd79
224,1,"""","""","""","""","""",sampler,201,238268,0.0-6.0-195.0,"""","""","""","""","""","""","""","""","""","""","""","""","2021-08-17 18:03:47",70.160.28.221,"Mozilla/5.0 (Windows NT 10.0; Win64; x64) AppleWebKit/537.36 (KHTML, like Gecko) Chrome/92.0.4515.131 Safari/537.36",WebKit,Chrome,92.0.4515.131,Windows,10.0,5f461dd6c139dd6b46c7596cbd57cd79
224,1,"""","""","""","""","""",sampler,202,238268,0.0-6.0-196.0,"""","""","""","""","""","""","""","""","""","""","""","""","2021-08-17 18:03:47",70.160.28.221,"Mozilla/5.0 (Windows NT 10.0; Win64; x64) AppleWebKit/537.36 (KHTML, like Gecko) Chrome/92.0.4515.131 Safari/537.36",WebKit,Chrome,92.0.4515.131,Windows,10.0,5f461dd6c139dd6b46c7596cbd57cd79
224,1,"""","""","""","""","""",sampler,203,238268,0.0-6.0-197.0,"""","""","""","""","""","""","""","""","""","""","""","""","2021-08-17 18:03:47",70.160.28.221,"Mozilla/5.0 (Windows NT 10.0; Win64; x64) AppleWebKit/537.36 (KHTML, like Gecko) Chrome/92.0.4515.131 Safari/537.36",WebKit,Chrome,92.0.4515.131,Windows,10.0,5f461dd6c139dd6b46c7596cbd57cd79
224,1,"""","""","""","""","""",sampler,204,238268,0.0-6.0-198.0,"""","""","""","""","""","""","""","""","""","""","""","""","2021-08-17 18:03:47",70.160.28.221,"Mozilla/5.0 (Windows NT 10.0; Win64; x64) AppleWebKit/537.36 (KHTML, like Gecko) Chrome/92.0.4515.131 Safari/537.36",WebKit,Chrome,92.0.4515.131,Windows,10.0,5f461dd6c139dd6b46c7596cbd57cd79
224,1,"""","""","""","""","""",sampler,205,238269,0.0-6.0-199.0,"""","""","""","""","""","""","""","""","""","""","""","""","2021-08-17 18:03:47",70.160.28.221,"Mozilla/5.0 (Windows NT 10.0; Win64; x64) AppleWebKit/537.36 (KHTML, like Gecko) Chrome/92.0.4515.131 Safari/537.36",WebKit,Chrome,92.0.4515.131,Windows,10.0,5f461dd6c139dd6b46c7596cbd57cd79
224,1,"""","""","""","""","""",sampler,206,238269,0.0-6.0-200.0,"""","""","""","""","""","""","""","""","""","""","""","""","2021-08-17 18:03:47",70.160.28.221,"Mozilla/5.0 (Windows NT 10.0; Win64; x64) AppleWebKit/537.36 (KHTML, like Gecko) Chrome/92.0.4515.131 Safari/537.36",WebKit,Chrome,92.0.4515.131,Windows,10.0,5f461dd6c139dd6b46c7596cbd57cd79
224,1,"""","""","""","""","""",sampler,207,238269,0.0-6.0-201.0,"""","""","""","""","""","""","""","""","""","""","""","""","2021-08-17 18:03:47",70.160.28.221,"Mozilla/5.0 (Windows NT 10.0; Win64; x64) AppleWebKit/537.36 (KHTML, like Gecko) Chrome/92.0.4515.131 Safari/537.36",WebKit,Chrome,92.0.4515.131,Windows,10.0,5f461dd6c139dd6b46c7596cbd57cd79
224,1,"""","""","""","""","""",sampler,208,238269,0.0-6.0-202.0,"""","""","""","""","""","""","""","""","""","""","""","""","2021-08-17 18:03:47",70.160.28.221,"Mozilla/5.0 (Windows NT 10.0; Win64; x64) AppleWebKit/537.36 (KHTML, like Gecko) Chrome/92.0.4515.131 Safari/537.36",WebKit,Chrome,92.0.4515.131,Windows,10.0,5f461dd6c139dd6b46c7596cbd57cd79
224,1,"""","""","""","""","""",sampler,209,238269,0.0-6.0-203.0,"""","""","""","""","""","""","""","""","""","""","""","""","2021-08-17 18:03:47",70.160.28.221,"Mozilla/5.0 (Windows NT 10.0; Win64; x64) AppleWebKit/537.36 (KHTML, like Gecko) Chrome/92.0.4515.131 Safari/537.36",WebKit,Chrome,92.0.4515.131,Windows,10.0,5f461dd6c139dd6b46c7596cbd57cd79
224,1,"""","""","""","""","""",sampler,210,238269,0.0-6.0-204.0,"""","""","""","""","""","""","""","""","""","""","""","""","2021-08-17 18:03:47",70.160.28.221,"Mozilla/5.0 (Windows NT 10.0; Win64; x64) AppleWebKit/537.36 (KHTML, like Gecko) Chrome/92.0.4515.131 Safari/537.36",WebKit,Chrome,92.0.4515.131,Windows,10.0,5f461dd6c139dd6b46c7596cbd57cd79
224,1,"""","""","""","""","""",sampler,211,238269,0.0-6.0-205.0,"""","""","""","""","""","""","""","""","""","""","""","""","2021-08-17 18:03:47",70.160.28.221,"Mozilla/5.0 (Windows NT 10.0; Win64; x64) AppleWebKit/537.36 (KHTML, like Gecko) Chrome/92.0.4515.131 Safari/537.36",WebKit,Chrome,92.0.4515.131,Windows,10.0,5f461dd6c139dd6b46c7596cbd57cd79
224,1,"""","""","""","""","""",sampler,212,238269,0.0-6.0-206.0,"""","""","""","""","""","""","""","""","""","""","""","""","2021-08-17 18:03:47",70.160.28.221,"Mozilla/5.0 (Windows NT 10.0; Win64; x64) AppleWebKit/537.36 (KHTML, like Gecko) Chrome/92.0.4515.131 Safari/537.36",WebKit,Chrome,92.0.4515.131,Windows,10.0,5f461dd6c139dd6b46c7596cbd57cd79
224,1,"""","""","""","""","""",sampler,213,238269,0.0-6.0-207.0,"""","""","""","""","""","""","""","""","""","""","""","""","2021-08-17 18:03:47",70.160.28.221,"Mozilla/5.0 (Windows NT 10.0; Win64; x64) AppleWebKit/537.36 (KHTML, like Gecko) Chrome/92.0.4515.131 Safari/537.36",WebKit,Chrome,92.0.4515.131,Windows,10.0,5f461dd6c139dd6b46c7596cbd57cd79
224,1,"""","""","""","""","""",sampler,214,238269,0.0-6.0-208.0,"""","""","""","""","""","""","""","""","""","""","""","""","2021-08-17 18:03:47",70.160.28.221,"Mozilla/5.0 (Windows NT 10.0; Win64; x64) AppleWebKit/537.36 (KHTML, like Gecko) Chrome/92.0.4515.131 Safari/537.36",WebKit,Chrome,92.0.4515.131,Windows,10.0,5f461dd6c139dd6b46c7596cbd57cd79
224,1,"""","""","""","""","""",sampler,215,238269,0.0-6.0-209.0,"""","""","""","""","""","""","""","""","""","""","""","""","2021-08-17 18:03:47",70.160.28.221,"Mozilla/5.0 (Windows NT 10.0; Win64; x64) AppleWebKit/537.36 (KHTML, like Gecko) Chrome/92.0.4515.131 Safari/537.36",WebKit,Chrome,92.0.4515.131,Windows,10.0,5f461dd6c139dd6b46c7596cbd57cd79
224,1,"""","""","""","""","""",sampler,216,238269,0.0-6.0-210.0,"""","""","""","""","""","""","""","""","""","""","""","""","2021-08-17 18:03:47",70.160.28.221,"Mozilla/5.0 (Windows NT 10.0; Win64; x64) AppleWebKit/537.36 (KHTML, like Gecko) Chrome/92.0.4515.131 Safari/537.36",WebKit,Chrome,92.0.4515.131,Windows,10.0,5f461dd6c139dd6b46c7596cbd57cd79
224,1,"""","""","""","""","""",sampler,217,238269,0.0-6.0-211.0,"""","""","""","""","""","""","""","""","""","""","""","""","2021-08-17 18:03:47",70.160.28.221,"Mozilla/5.0 (Windows NT 10.0; Win64; x64) AppleWebKit/537.36 (KHTML, like Gecko) Chrome/92.0.4515.131 Safari/537.36",WebKit,Chrome,92.0.4515.131,Windows,10.0,5f461dd6c139dd6b46c7596cbd57cd79
224,1,"""","""","""","""","""",sampler,218,238270,0.0-6.0-212.0,"""","""","""","""","""","""","""","""","""","""","""","""","2021-08-17 18:03:47",70.160.28.221,"Mozilla/5.0 (Windows NT 10.0; Win64; x64) AppleWebKit/537.36 (KHTML, like Gecko) Chrome/92.0.4515.131 Safari/537.36",WebKit,Chrome,92.0.4515.131,Windows,10.0,5f461dd6c139dd6b46c7596cbd57cd79
224,1,"""","""","""","""","""",sampler,219,238270,0.0-6.0-213.0,"""","""","""","""","""","""","""","""","""","""","""","""","2021-08-17 18:03:47",70.160.28.221,"Mozilla/5.0 (Windows NT 10.0; Win64; x64) AppleWebKit/537.36 (KHTML, like Gecko) Chrome/92.0.4515.131 Safari/537.36",WebKit,Chrome,92.0.4515.131,Windows,10.0,5f461dd6c139dd6b46c7596cbd57cd79
224,1,"""","""","""","""","""",sampler,220,238270,0.0-6.0-214.0,"""","""","""","""","""","""","""","""","""","""","""","""","2021-08-17 18:03:47",70.160.28.221,"Mozilla/5.0 (Windows NT 10.0; Win64; x64) AppleWebKit/537.36 (KHTML, like Gecko) Chrome/92.0.4515.131 Safari/537.36",WebKit,Chrome,92.0.4515.131,Windows,10.0,5f461dd6c139dd6b46c7596cbd57cd79
224,1,"""","""","""","""","""",sampler,221,238270,0.0-6.0-215.0,"""","""","""","""","""","""","""","""","""","""","""","""","2021-08-17 18:03:47",70.160.28.221,"Mozilla/5.0 (Windows NT 10.0; Win64; x64) AppleWebKit/537.36 (KHTML, like Gecko) Chrome/92.0.4515.131 Safari/537.36",WebKit,Chrome,92.0.4515.131,Windows,10.0,5f461dd6c139dd6b46c7596cbd57cd79
224,1,"""","""","""","""","""",sampler,222,238270,0.0-6.0-216.0,"""","""","""","""","""","""","""","""","""","""","""","""","2021-08-17 18:03:47",70.160.28.221,"Mozilla/5.0 (Windows NT 10.0; Win64; x64) AppleWebKit/537.36 (KHTML, like Gecko) Chrome/92.0.4515.131 Safari/537.36",WebKit,Chrome,92.0.4515.131,Windows,10.0,5f461dd6c139dd6b46c7596cbd57cd79
224,1,"""","""","""","""","""",sampler,223,238270,0.0-6.0-217.0,"""","""","""","""","""","""","""","""","""","""","""","""","2021-08-17 18:03:47",70.160.28.221,"Mozilla/5.0 (Windows NT 10.0; Win64; x64) AppleWebKit/537.36 (KHTML, like Gecko) Chrome/92.0.4515.131 Safari/537.36",WebKit,Chrome,92.0.4515.131,Windows,10.0,5f461dd6c139dd6b46c7596cbd57cd79
224,1,"""","""","""","""","""",sampler,224,238270,0.0-6.0-218.0,"""","""","""","""","""","""","""","""","""","""","""","""","2021-08-17 18:03:47",70.160.28.221,"Mozilla/5.0 (Windows NT 10.0; Win64; x64) AppleWebKit/537.36 (KHTML, like Gecko) Chrome/92.0.4515.131 Safari/537.36",WebKit,Chrome,92.0.4515.131,Windows,10.0,5f461dd6c139dd6b46c7596cbd57cd79
224,1,"""","""","""","""","""",sampler,225,238270,0.0-6.0-219.0,"""","""","""","""","""","""","""","""","""","""","""","""","2021-08-17 18:03:47",70.160.28.221,"Mozilla/5.0 (Windows NT 10.0; Win64; x64) AppleWebKit/537.36 (KHTML, like Gecko) Chrome/92.0.4515.131 Safari/537.36",WebKit,Chrome,92.0.4515.131,Windows,10.0,5f461dd6c139dd6b46c7596cbd57cd79
224,1,"""","""","""","""","""",sampler,226,238270,0.0-6.0-220.0,"""","""","""","""","""","""","""","""","""","""","""","""","2021-08-17 18:03:47",70.160.28.221,"Mozilla/5.0 (Windows NT 10.0; Win64; x64) AppleWebKit/537.36 (KHTML, like Gecko) Chrome/92.0.4515.131 Safari/537.36",WebKit,Chrome,92.0.4515.131,Windows,10.0,5f461dd6c139dd6b46c7596cbd57cd79
224,1,"""","""","""","""","""",sampler,227,238270,0.0-6.0-221.0,"""","""","""","""","""","""","""","""","""","""","""","""","2021-08-17 18:03:47",70.160.28.221,"Mozilla/5.0 (Windows NT 10.0; Win64; x64) AppleWebKit/537.36 (KHTML, like Gecko) Chrome/92.0.4515.131 Safari/537.36",WebKit,Chrome,92.0.4515.131,Windows,10.0,5f461dd6c139dd6b46c7596cbd57cd79
224,1,"""","""","""","""","""",sampler,228,238270,0.0-6.0-222.0,"""","""","""","""","""","""","""","""","""","""","""","""","2021-08-17 18:03:47",70.160.28.221,"Mozilla/5.0 (Windows NT 10.0; Win64; x64) AppleWebKit/537.36 (KHTML, like Gecko) Chrome/92.0.4515.131 Safari/537.36",WebKit,Chrome,92.0.4515.131,Windows,10.0,5f461dd6c139dd6b46c7596cbd57cd79
224,1,"""","""","""","""","""",sampler,229,238270,0.0-6.0-223.0,"""","""","""","""","""","""","""","""","""","""","""","""","2021-08-17 18:03:47",70.160.28.221,"Mozilla/5.0 (Windows NT 10.0; Win64; x64) AppleWebKit/537.36 (KHTML, like Gecko) Chrome/92.0.4515.131 Safari/537.36",WebKit,Chrome,92.0.4515.131,Windows,10.0,5f461dd6c139dd6b46c7596cbd57cd79
224,1,"""","""","""","""","""",sampler,230,238271,0.0-6.0-224.0,"""","""","""","""","""","""","""","""","""","""","""","""","2021-08-17 18:03:47",70.160.28.221,"Mozilla/5.0 (Windows NT 10.0; Win64; x64) AppleWebKit/537.36 (KHTML, like Gecko) Chrome/92.0.4515.131 Safari/537.36",WebKit,Chrome,92.0.4515.131,Windows,10.0,5f461dd6c139dd6b46c7596cbd57cd79
224,1,"""","""","""","""","""",sampler,231,238271,0.0-6.0-225.0,"""","""","""","""","""","""","""","""","""","""","""","""","2021-08-17 18:03:47",70.160.28.221,"Mozilla/5.0 (Windows NT 10.0; Win64; x64) AppleWebKit/537.36 (KHTML, like Gecko) Chrome/92.0.4515.131 Safari/537.36",WebKit,Chrome,92.0.4515.131,Windows,10.0,5f461dd6c139dd6b46c7596cbd57cd79
224,1,"""","""","""","""","""",sampler,232,238271,0.0-6.0-226.0,"""","""","""","""","""","""","""","""","""","""","""","""","2021-08-17 18:03:47",70.160.28.221,"Mozilla/5.0 (Windows NT 10.0; Win64; x64) AppleWebKit/537.36 (KHTML, like Gecko) Chrome/92.0.4515.131 Safari/537.36",WebKit,Chrome,92.0.4515.131,Windows,10.0,5f461dd6c139dd6b46c7596cbd57cd79
224,1,"""","""","""","""","""",sampler,233,238271,0.0-6.0-227.0,"""","""","""","""","""","""","""","""","""","""","""","""","2021-08-17 18:03:47",70.160.28.221,"Mozilla/5.0 (Windows NT 10.0; Win64; x64) AppleWebKit/537.36 (KHTML, like Gecko) Chrome/92.0.4515.131 Safari/537.36",WebKit,Chrome,92.0.4515.131,Windows,10.0,5f461dd6c139dd6b46c7596cbd57cd79
224,1,"""","""","""","""","""",sampler,234,238271,0.0-6.0-228.0,"""","""","""","""","""","""","""","""","""","""","""","""","2021-08-17 18:03:47",70.160.28.221,"Mozilla/5.0 (Windows NT 10.0; Win64; x64) AppleWebKit/537.36 (KHTML, like Gecko) Chrome/92.0.4515.131 Safari/537.36",WebKit,Chrome,92.0.4515.131,Windows,10.0,5f461dd6c139dd6b46c7596cbd57cd79
224,1,"""","""","""","""","""",sampler,235,238271,0.0-6.0-229.0,"""","""","""","""","""","""","""","""","""","""","""","""","2021-08-17 18:03:47",70.160.28.221,"Mozilla/5.0 (Windows NT 10.0; Win64; x64) AppleWebKit/537.36 (KHTML, like Gecko) Chrome/92.0.4515.131 Safari/537.36",WebKit,Chrome,92.0.4515.131,Windows,10.0,5f461dd6c139dd6b46c7596cbd57cd79
224,1,"""","""","""","""","""",sampler,236,238271,0.0-6.0-230.0,"""","""","""","""","""","""","""","""","""","""","""","""","2021-08-17 18:03:47",70.160.28.221,"Mozilla/5.0 (Windows NT 10.0; Win64; x64) AppleWebKit/537.36 (KHTML, like Gecko) Chrome/92.0.4515.131 Safari/537.36",WebKit,Chrome,92.0.4515.131,Windows,10.0,5f461dd6c139dd6b46c7596cbd57cd79
224,1,"""","""","""","""","""",sampler,237,238271,0.0-6.0-231.0,"""","""","""","""","""","""","""","""","""","""","""","""","2021-08-17 18:03:47",70.160.28.221,"Mozilla/5.0 (Windows NT 10.0; Win64; x64) AppleWebKit/537.36 (KHTML, like Gecko) Chrome/92.0.4515.131 Safari/537.36",WebKit,Chrome,92.0.4515.131,Windows,10.0,5f461dd6c139dd6b46c7596cbd57cd79
224,1,"""","""","""","""","""",sampler,238,238271,0.0-6.0-232.0,"""","""","""","""","""","""","""","""","""","""","""","""","2021-08-17 18:03:47",70.160.28.221,"Mozilla/5.0 (Windows NT 10.0; Win64; x64) AppleWebKit/537.36 (KHTML, like Gecko) Chrome/92.0.4515.131 Safari/537.36",WebKit,Chrome,92.0.4515.131,Windows,10.0,5f461dd6c139dd6b46c7596cbd57cd79
224,1,"""","""","""","""","""",sampler,239,238271,0.0-6.0-233.0,"""","""","""","""","""","""","""","""","""","""","""","""","2021-08-17 18:03:47",70.160.28.221,"Mozilla/5.0 (Windows NT 10.0; Win64; x64) AppleWebKit/537.36 (KHTML, like Gecko) Chrome/92.0.4515.131 Safari/537.36",WebKit,Chrome,92.0.4515.131,Windows,10.0,5f461dd6c139dd6b46c7596cbd57cd79
224,1,"""","""","""","""","""",sampler,240,238271,0.0-6.0-234.0,"""","""","""","""","""","""","""","""","""","""","""","""","2021-08-17 18:03:47",70.160.28.221,"Mozilla/5.0 (Windows NT 10.0; Win64; x64) AppleWebKit/537.36 (KHTML, like Gecko) Chrome/92.0.4515.131 Safari/537.36",WebKit,Chrome,92.0.4515.131,Windows,10.0,5f461dd6c139dd6b46c7596cbd57cd79
224,1,"""","""","""","""","""",sampler,241,238271,0.0-6.0-235.0,"""","""","""","""","""","""","""","""","""","""","""","""","2021-08-17 18:03:47",70.160.28.221,"Mozilla/5.0 (Windows NT 10.0; Win64; x64) AppleWebKit/537.36 (KHTML, like Gecko) Chrome/92.0.4515.131 Safari/537.36",WebKit,Chrome,92.0.4515.131,Windows,10.0,5f461dd6c139dd6b46c7596cbd57cd79
224,1,"""","""","""","""","""",sampler,242,238272,0.0-6.0-236.0,"""","""","""","""","""","""","""","""","""","""","""","""","2021-08-17 18:03:47",70.160.28.221,"Mozilla/5.0 (Windows NT 10.0; Win64; x64) AppleWebKit/537.36 (KHTML, like Gecko) Chrome/92.0.4515.131 Safari/537.36",WebKit,Chrome,92.0.4515.131,Windows,10.0,5f461dd6c139dd6b46c7596cbd57cd79
224,1,"""","""","""","""","""",sampler,243,238272,0.0-6.0-237.0,"""","""","""","""","""","""","""","""","""","""","""","""","2021-08-17 18:03:47",70.160.28.221,"Mozilla/5.0 (Windows NT 10.0; Win64; x64) AppleWebKit/537.36 (KHTML, like Gecko) Chrome/92.0.4515.131 Safari/537.36",WebKit,Chrome,92.0.4515.131,Windows,10.0,5f461dd6c139dd6b46c7596cbd57cd79
224,1,"""","""","""","""","""",sampler,244,238272,0.0-6.0-238.0,"""","""","""","""","""","""","""","""","""","""","""","""","2021-08-17 18:03:47",70.160.28.221,"Mozilla/5.0 (Windows NT 10.0; Win64; x64) AppleWebKit/537.36 (KHTML, like Gecko) Chrome/92.0.4515.131 Safari/537.36",WebKit,Chrome,92.0.4515.131,Windows,10.0,5f461dd6c139dd6b46c7596cbd57cd79
224,1,"""","""","""","""","""",sampler,245,238272,0.0-6.0-239.0,"""","""","""","""","""","""","""","""","""","""","""","""","2021-08-17 18:03:47",70.160.28.221,"Mozilla/5.0 (Windows NT 10.0; Win64; x64) AppleWebKit/537.36 (KHTML, like Gecko) Chrome/92.0.4515.131 Safari/537.36",WebKit,Chrome,92.0.4515.131,Windows,10.0,5f461dd6c139dd6b46c7596cbd57cd79
224,1,"""","""","""","""","""",sampler,246,238272,0.0-6.0-240.0,"""","""","""","""","""","""","""","""","""","""","""","""","2021-08-17 18:03:47",70.160.28.221,"Mozilla/5.0 (Windows NT 10.0; Win64; x64) AppleWebKit/537.36 (KHTML, like Gecko) Chrome/92.0.4515.131 Safari/537.36",WebKit,Chrome,92.0.4515.131,Windows,10.0,5f461dd6c139dd6b46c7596cbd57cd79
224,1,"""","""","""","""","""",sampler,247,238273,0.0-6.0-241.0,"""","""","""","""","""","""","""","""","""","""","""","""","2021-08-17 18:03:47",70.160.28.221,"Mozilla/5.0 (Windows NT 10.0; Win64; x64) AppleWebKit/537.36 (KHTML, like Gecko) Chrome/92.0.4515.131 Safari/537.36",WebKit,Chrome,92.0.4515.131,Windows,10.0,5f461dd6c139dd6b46c7596cbd57cd79
224,1,"""","""","""","""","""",sampler,248,238273,0.0-6.0-242.0,"""","""","""","""","""","""","""","""","""","""","""","""","2021-08-17 18:03:47",70.160.28.221,"Mozilla/5.0 (Windows NT 10.0; Win64; x64) AppleWebKit/537.36 (KHTML, like Gecko) Chrome/92.0.4515.131 Safari/537.36",WebKit,Chrome,92.0.4515.131,Windows,10.0,5f461dd6c139dd6b46c7596cbd57cd79
224,1,"""","""","""","""","""",sampler,249,238273,0.0-6.0-243.0,"""","""","""","""","""","""","""","""","""","""","""","""","2021-08-17 18:03:47",70.160.28.221,"Mozilla/5.0 (Windows NT 10.0; Win64; x64) AppleWebKit/537.36 (KHTML, like Gecko) Chrome/92.0.4515.131 Safari/537.36",WebKit,Chrome,92.0.4515.131,Windows,10.0,5f461dd6c139dd6b46c7596cbd57cd79
224,1,"""","""","""","""","""",sampler,250,238273,0.0-6.0-244.0,"""","""","""","""","""","""","""","""","""","""","""","""","2021-08-17 18:03:47",70.160.28.221,"Mozilla/5.0 (Windows NT 10.0; Win64; x64) AppleWebKit/537.36 (KHTML, like Gecko) Chrome/92.0.4515.131 Safari/537.36",WebKit,Chrome,92.0.4515.131,Windows,10.0,5f461dd6c139dd6b46c7596cbd57cd79
224,1,"""","""","""","""","""",sampler,251,238273,0.0-6.0-245.0,"""","""","""","""","""","""","""","""","""","""","""","""","2021-08-17 18:03:47",70.160.28.221,"Mozilla/5.0 (Windows NT 10.0; Win64; x64) AppleWebKit/537.36 (KHTML, like Gecko) Chrome/92.0.4515.131 Safari/537.36",WebKit,Chrome,92.0.4515.131,Windows,10.0,5f461dd6c139dd6b46c7596cbd57cd79
224,1,"""","""","""","""","""",sampler,252,238273,0.0-6.0-246.0,"""","""","""","""","""","""","""","""","""","""","""","""","2021-08-17 18:03:47",70.160.28.221,"Mozilla/5.0 (Windows NT 10.0; Win64; x64) AppleWebKit/537.36 (KHTML, like Gecko) Chrome/92.0.4515.131 Safari/537.36",WebKit,Chrome,92.0.4515.131,Windows,10.0,5f461dd6c139dd6b46c7596cbd57cd79
224,1,"""","""","""","""","""",sampler,253,238273,0.0-6.0-247.0,"""","""","""","""","""","""","""","""","""","""","""","""","2021-08-17 18:03:47",70.160.28.221,"Mozilla/5.0 (Windows NT 10.0; Win64; x64) AppleWebKit/537.36 (KHTML, like Gecko) Chrome/92.0.4515.131 Safari/537.36",WebKit,Chrome,92.0.4515.131,Windows,10.0,5f461dd6c139dd6b46c7596cbd57cd79
224,1,"""","""","""","""","""",sampler,254,238273,0.0-6.0-248.0,"""","""","""","""","""","""","""","""","""","""","""","""","2021-08-17 18:03:47",70.160.28.221,"Mozilla/5.0 (Windows NT 10.0; Win64; x64) AppleWebKit/537.36 (KHTML, like Gecko) Chrome/92.0.4515.131 Safari/537.36",WebKit,Chrome,92.0.4515.131,Windows,10.0,5f461dd6c139dd6b46c7596cbd57cd79
224,1,"""","""","""","""","""",sampler,255,238273,0.0-6.0-249.0,"""","""","""","""","""","""","""","""","""","""","""","""","2021-08-17 18:03:47",70.160.28.221,"Mozilla/5.0 (Windows NT 10.0; Win64; x64) AppleWebKit/537.36 (KHTML, like Gecko) Chrome/92.0.4515.131 Safari/537.36",WebKit,Chrome,92.0.4515.131,Windows,10.0,5f461dd6c139dd6b46c7596cbd57cd79
224,1,"""","""","""","""","""",sampler,256,238273,0.0-6.0-250.0,"""","""","""","""","""","""","""","""","""","""","""","""","2021-08-17 18:03:47",70.160.28.221,"Mozilla/5.0 (Windows NT 10.0; Win64; x64) AppleWebKit/537.36 (KHTML, like Gecko) Chrome/92.0.4515.131 Safari/537.36",WebKit,Chrome,92.0.4515.131,Windows,10.0,5f461dd6c139dd6b46c7596cbd57cd79
224,1,"""","""","""","""","""",sampler,257,238274,0.0-6.0-251.0,"""","""","""","""","""","""","""","""","""","""","""","""","2021-08-17 18:03:47",70.160.28.221,"Mozilla/5.0 (Windows NT 10.0; Win64; x64) AppleWebKit/537.36 (KHTML, like Gecko) Chrome/92.0.4515.131 Safari/537.36",WebKit,Chrome,92.0.4515.131,Windows,10.0,5f461dd6c139dd6b46c7596cbd57cd79
224,1,"""","""","""","""","""",sampler,258,238274,0.0-6.0-252.0,"""","""","""","""","""","""","""","""","""","""","""","""","2021-08-17 18:03:47",70.160.28.221,"Mozilla/5.0 (Windows NT 10.0; Win64; x64) AppleWebKit/537.36 (KHTML, like Gecko) Chrome/92.0.4515.131 Safari/537.36",WebKit,Chrome,92.0.4515.131,Windows,10.0,5f461dd6c139dd6b46c7596cbd57cd79
224,1,"""","""","""","""","""",sampler,259,238274,0.0-6.0-253.0,"""","""","""","""","""","""","""","""","""","""","""","""","2021-08-17 18:03:47",70.160.28.221,"Mozilla/5.0 (Windows NT 10.0; Win64; x64) AppleWebKit/537.36 (KHTML, like Gecko) Chrome/92.0.4515.131 Safari/537.36",WebKit,Chrome,92.0.4515.131,Windows,10.0,5f461dd6c139dd6b46c7596cbd57cd79
224,1,"""","""","""","""","""",sampler,260,238274,0.0-6.0-254.0,"""","""","""","""","""","""","""","""","""","""","""","""","2021-08-17 18:03:47",70.160.28.221,"Mozilla/5.0 (Windows NT 10.0; Win64; x64) AppleWebKit/537.36 (KHTML, like Gecko) Chrome/92.0.4515.131 Safari/537.36",WebKit,Chrome,92.0.4515.131,Windows,10.0,5f461dd6c139dd6b46c7596cbd57cd79
224,1,"""","""","""","""","""",sampler,261,238274,0.0-6.0-255.0,"""","""","""","""","""","""","""","""","""","""","""","""","2021-08-17 18:03:47",70.160.28.221,"Mozilla/5.0 (Windows NT 10.0; Win64; x64) AppleWebKit/537.36 (KHTML, like Gecko) Chrome/92.0.4515.131 Safari/537.36",WebKit,Chrome,92.0.4515.131,Windows,10.0,5f461dd6c139dd6b46c7596cbd57cd79
224,1,"""","""","""","""","""",sampler,262,238274,0.0-6.0-256.0,"""","""","""","""","""","""","""","""","""","""","""","""","2021-08-17 18:03:47",70.160.28.221,"Mozilla/5.0 (Windows NT 10.0; Win64; x64) AppleWebKit/537.36 (KHTML, like Gecko) Chrome/92.0.4515.131 Safari/537.36",WebKit,Chrome,92.0.4515.131,Windows,10.0,5f461dd6c139dd6b46c7596cbd57cd79
224,1,"""","""","""","""","""",sampler,263,238274,0.0-6.0-257.0,"""","""","""","""","""","""","""","""","""","""","""","""","2021-08-17 18:03:47",70.160.28.221,"Mozilla/5.0 (Windows NT 10.0; Win64; x64) AppleWebKit/537.36 (KHTML, like Gecko) Chrome/92.0.4515.131 Safari/537.36",WebKit,Chrome,92.0.4515.131,Windows,10.0,5f461dd6c139dd6b46c7596cbd57cd79
224,1,"""","""","""","""","""",sampler,264,238274,0.0-6.0-258.0,"""","""","""","""","""","""","""","""","""","""","""","""","2021-08-17 18:03:47",70.160.28.221,"Mozilla/5.0 (Windows NT 10.0; Win64; x64) AppleWebKit/537.36 (KHTML, like Gecko) Chrome/92.0.4515.131 Safari/537.36",WebKit,Chrome,92.0.4515.131,Windows,10.0,5f461dd6c139dd6b46c7596cbd57cd79
224,1,"""","""","""","""","""",sampler,265,238274,0.0-6.0-259.0,"""","""","""","""","""","""","""","""","""","""","""","""","2021-08-17 18:03:47",70.160.28.221,"Mozilla/5.0 (Windows NT 10.0; Win64; x64) AppleWebKit/537.36 (KHTML, like Gecko) Chrome/92.0.4515.131 Safari/537.36",WebKit,Chrome,92.0.4515.131,Windows,10.0,5f461dd6c139dd6b46c7596cbd57cd79
224,1,"""","""","""","""","""",sampler,266,238274,0.0-6.0-260.0,"""","""","""","""","""","""","""","""","""","""","""","""","2021-08-17 18:03:47",70.160.28.221,"Mozilla/5.0 (Windows NT 10.0; Win64; x64) AppleWebKit/537.36 (KHTML, like Gecko) Chrome/92.0.4515.131 Safari/537.36",WebKit,Chrome,92.0.4515.131,Windows,10.0,5f461dd6c139dd6b46c7596cbd57cd79
224,1,"""","""","""","""","""",sampler,267,238275,0.0-6.0-261.0,"""","""","""","""","""","""","""","""","""","""","""","""","2021-08-17 18:03:47",70.160.28.221,"Mozilla/5.0 (Windows NT 10.0; Win64; x64) AppleWebKit/537.36 (KHTML, like Gecko) Chrome/92.0.4515.131 Safari/537.36",WebKit,Chrome,92.0.4515.131,Windows,10.0,5f461dd6c139dd6b46c7596cbd57cd79
224,1,"""","""","""","""","""",sampler,268,238275,0.0-6.0-262.0,"""","""","""","""","""","""","""","""","""","""","""","""","2021-08-17 18:03:47",70.160.28.221,"Mozilla/5.0 (Windows NT 10.0; Win64; x64) AppleWebKit/537.36 (KHTML, like Gecko) Chrome/92.0.4515.131 Safari/537.36",WebKit,Chrome,92.0.4515.131,Windows,10.0,5f461dd6c139dd6b46c7596cbd57cd79
224,1,"""","""","""","""","""",sampler,269,238275,0.0-6.0-263.0,"""","""","""","""","""","""","""","""","""","""","""","""","2021-08-17 18:03:47",70.160.28.221,"Mozilla/5.0 (Windows NT 10.0; Win64; x64) AppleWebKit/537.36 (KHTML, like Gecko) Chrome/92.0.4515.131 Safari/537.36",WebKit,Chrome,92.0.4515.131,Windows,10.0,5f461dd6c139dd6b46c7596cbd57cd79
224,1,"""","""","""","""","""",sampler,270,238275,0.0-6.0-264.0,"""","""","""","""","""","""","""","""","""","""","""","""","2021-08-17 18:03:47",70.160.28.221,"Mozilla/5.0 (Windows NT 10.0; Win64; x64) AppleWebKit/537.36 (KHTML, like Gecko) Chrome/92.0.4515.131 Safari/537.36",WebKit,Chrome,92.0.4515.131,Windows,10.0,5f461dd6c139dd6b46c7596cbd57cd79
224,1,"""","""","""","""","""",sampler,271,238275,0.0-6.0-265.0,"""","""","""","""","""","""","""","""","""","""","""","""","2021-08-17 18:03:47",70.160.28.221,"Mozilla/5.0 (Windows NT 10.0; Win64; x64) AppleWebKit/537.36 (KHTML, like Gecko) Chrome/92.0.4515.131 Safari/537.36",WebKit,Chrome,92.0.4515.131,Windows,10.0,5f461dd6c139dd6b46c7596cbd57cd79
224,1,"""","""","""","""","""",sampler,272,238275,0.0-6.0-266.0,"""","""","""","""","""","""","""","""","""","""","""","""","2021-08-17 18:03:47",70.160.28.221,"Mozilla/5.0 (Windows NT 10.0; Win64; x64) AppleWebKit/537.36 (KHTML, like Gecko) Chrome/92.0.4515.131 Safari/537.36",WebKit,Chrome,92.0.4515.131,Windows,10.0,5f461dd6c139dd6b46c7596cbd57cd79
224,1,"""","""","""","""","""",sampler,273,238275,0.0-6.0-267.0,"""","""","""","""","""","""","""","""","""","""","""","""","2021-08-17 18:03:47",70.160.28.221,"Mozilla/5.0 (Windows NT 10.0; Win64; x64) AppleWebKit/537.36 (KHTML, like Gecko) Chrome/92.0.4515.131 Safari/537.36",WebKit,Chrome,92.0.4515.131,Windows,10.0,5f461dd6c139dd6b46c7596cbd57cd79
224,1,"""","""","""","""","""",sampler,274,238275,0.0-6.0-268.0,"""","""","""","""","""","""","""","""","""","""","""","""","2021-08-17 18:03:47",70.160.28.221,"Mozilla/5.0 (Windows NT 10.0; Win64; x64) AppleWebKit/537.36 (KHTML, like Gecko) Chrome/92.0.4515.131 Safari/537.36",WebKit,Chrome,92.0.4515.131,Windows,10.0,5f461dd6c139dd6b46c7596cbd57cd79
224,1,"""","""","""","""","""",sampler,275,238275,0.0-6.0-269.0,"""","""","""","""","""","""","""","""","""","""","""","""","2021-08-17 18:03:47",70.160.28.221,"Mozilla/5.0 (Windows NT 10.0; Win64; x64) AppleWebKit/537.36 (KHTML, like Gecko) Chrome/92.0.4515.131 Safari/537.36",WebKit,Chrome,92.0.4515.131,Windows,10.0,5f461dd6c139dd6b46c7596cbd57cd79
224,1,"""","""","""","""","""",sampler,276,238275,0.0-6.0-270.0,"""","""","""","""","""","""","""","""","""","""","""","""","2021-08-17 18:03:47",70.160.28.221,"Mozilla/5.0 (Windows NT 10.0; Win64; x64) AppleWebKit/537.36 (KHTML, like Gecko) Chrome/92.0.4515.131 Safari/537.36",WebKit,Chrome,92.0.4515.131,Windows,10.0,5f461dd6c139dd6b46c7596cbd57cd79
224,1,"""","""","""","""","""",sampler,277,238276,0.0-6.0-271.0,"""","""","""","""","""","""","""","""","""","""","""","""","2021-08-17 18:03:47",70.160.28.221,"Mozilla/5.0 (Windows NT 10.0; Win64; x64) AppleWebKit/537.36 (KHTML, like Gecko) Chrome/92.0.4515.131 Safari/537.36",WebKit,Chrome,92.0.4515.131,Windows,10.0,5f461dd6c139dd6b46c7596cbd57cd79
224,1,"""","""","""","""","""",sampler,278,238276,0.0-6.0-272.0,"""","""","""","""","""","""","""","""","""","""","""","""","2021-08-17 18:03:47",70.160.28.221,"Mozilla/5.0 (Windows NT 10.0; Win64; x64) AppleWebKit/537.36 (KHTML, like Gecko) Chrome/92.0.4515.131 Safari/537.36",WebKit,Chrome,92.0.4515.131,Windows,10.0,5f461dd6c139dd6b46c7596cbd57cd79
224,1,"""","""","""","""","""",sampler,279,238276,0.0-6.0-273.0,"""","""","""","""","""","""","""","""","""","""","""","""","2021-08-17 18:03:47",70.160.28.221,"Mozilla/5.0 (Windows NT 10.0; Win64; x64) AppleWebKit/537.36 (KHTML, like Gecko) Chrome/92.0.4515.131 Safari/537.36",WebKit,Chrome,92.0.4515.131,Windows,10.0,5f461dd6c139dd6b46c7596cbd57cd79
