run_id,condition,success,timeout,failed_images,failed_audio,failed_video,trial_type,trial_index,time_elapsed,internal_node_id,rt,stimulus,key_press,responses,view_history,correct,image_click,points,sd,points2,total_earn,button_pressed,recorded_at,ip,user_agent,device,browser,browser_version,platform,platform_version,source_code_version
185,1,true,false,"""","""","""",preload,0,403,0.0-0.0,"""","""","""","""","""","""","""","""","""","""","""","""","2021-08-09 16:15:56",94.9.82.158,"Mozilla/5.0 (Windows NT 10.0; Win64; x64) AppleWebKit/537.36 (KHTML, like Gecko) Chrome/92.0.4515.131 Safari/537.36",WebKit,Chrome,92.0.4515.131,Windows,10.0,5f461dd6c139dd6b46c7596cbd57cd79
185,1,"""","""","""","""","""",html-keyboard-response,1,2156,0.0-1.0,1749,"<font size=15>Welcome to our experiment!</font><br><br><br><i> Press <b>space bar</b> to begin.</i>",32,"""","""","""","""","""","""","""","""","""","2021-08-09 16:15:56",94.9.82.158,"Mozilla/5.0 (Windows NT 10.0; Win64; x64) AppleWebKit/537.36 (KHTML, like Gecko) Chrome/92.0.4515.131 Safari/537.36",WebKit,Chrome,92.0.4515.131,Windows,10.0,5f461dd6c139dd6b46c7596cbd57cd79
185,1,"""","""","""","""","""",survey-multi-choice,2,9485,0.0-2.0,7326,"""","""","{""Q0"":""Yes"",""Q1"":""Yes"",""Q2"":""Yes"",""Q3"":""Yes""}","""","""","""","""","""","""","""","""","2021-08-09 16:15:56",94.9.82.158,"Mozilla/5.0 (Windows NT 10.0; Win64; x64) AppleWebKit/537.36 (KHTML, like Gecko) Chrome/92.0.4515.131 Safari/537.36",WebKit,Chrome,92.0.4515.131,Windows,10.0,5f461dd6c139dd6b46c7596cbd57cd79
185,1,"""","""","""","""","""",survey-html-form,3,32204,0.0-3.0,22715.29999999702,"""","""","{""gender"":""male"",""age"":""28"",""hand"":""right"",""mail"":""592a232ed13ea60001553e51""}","""","""","""","""","""","""","""","""","2021-08-09 16:15:56",94.9.82.158,"Mozilla/5.0 (Windows NT 10.0; Win64; x64) AppleWebKit/537.36 (KHTML, like Gecko) Chrome/92.0.4515.131 Safari/537.36",WebKit,Chrome,92.0.4515.131,Windows,10.0,5f461dd6c139dd6b46c7596cbd57cd79
185,1,true,"""","""","""","""",fullscreen,4,35412,0.0-4.0,"""","""","""","""","""","""","""","""","""","""","""","""","2021-08-09 16:15:56",94.9.82.158,"Mozilla/5.0 (Windows NT 10.0; Win64; x64) AppleWebKit/537.36 (KHTML, like Gecko) Chrome/92.0.4515.131 Safari/537.36",WebKit,Chrome,92.0.4515.131,Windows,10.0,5f461dd6c139dd6b46c7596cbd57cd79
185,1,"""","""","""","""","""",multikey-instructions,5,114964,0.0-5.0,79548,"""","""","""","[{""page_index"":0,""viewing_time"":15100},{""page_index"":1,""viewing_time"":7288},{""page_index"":2,""viewing_time"":4881},{""page_index"":3,""viewing_time"":11944},{""page_index"":4,""viewing_time"":5336},{""page_index"":5,""viewing_time"":4280},{""page_index"":6,""viewing_time"":4064},{""page_index"":7,""viewing_time"":2431},{""page_index"":8,""viewing_time"":8889},{""page_index"":9,""viewing_time"":5256},{""page_index"":10,""viewing_time"":7000},{""page_index"":11,""viewing_time"":3079}]","""","""","""","""","""","""","""","2021-08-09 16:15:56",94.9.82.158,"Mozilla/5.0 (Windows NT 10.0; Win64; x64) AppleWebKit/537.36 (KHTML, like Gecko) Chrome/92.0.4515.131 Safari/537.36",WebKit,Chrome,92.0.4515.131,Windows,10.0,5f461dd6c139dd6b46c7596cbd57cd79
185,1,"""","""","""","""","""",sampler,6,120182,0.0-6.0-0.0,4814,img/Cobalt.png,"""","""","""",false,-1,-1.2279543515234446,10,"""","""","""","2021-08-09 16:15:56",94.9.82.158,"Mozilla/5.0 (Windows NT 10.0; Win64; x64) AppleWebKit/537.36 (KHTML, like Gecko) Chrome/92.0.4515.131 Safari/537.36",WebKit,Chrome,92.0.4515.131,Windows,10.0,5f461dd6c139dd6b46c7596cbd57cd79
185,1,"""","""","""","""","""",sampler,7,120814,0.0-6.0-1.0,228,img/Cobalt.png,"""","""","""",false,-1,-1.1174828959374272,10,"""","""","""","2021-08-09 16:15:56",94.9.82.158,"Mozilla/5.0 (Windows NT 10.0; Win64; x64) AppleWebKit/537.36 (KHTML, like Gecko) Chrome/92.0.4515.131 Safari/537.36",WebKit,Chrome,92.0.4515.131,Windows,10.0,5f461dd6c139dd6b46c7596cbd57cd79
185,1,"""","""","""","""","""",sampler,8,121302,0.0-6.0-2.0,85,img/Cobalt.png,"""","""","""",false,-1,-9.370419650643823,10,"""","""","""","2021-08-09 16:15:56",94.9.82.158,"Mozilla/5.0 (Windows NT 10.0; Win64; x64) AppleWebKit/537.36 (KHTML, like Gecko) Chrome/92.0.4515.131 Safari/537.36",WebKit,Chrome,92.0.4515.131,Windows,10.0,5f461dd6c139dd6b46c7596cbd57cd79
185,1,"""","""","""","""","""",sampler,9,121806,0.0-6.0-3.0,100,img/Cobalt.png,"""","""","""",false,-1,9.207133850663727,10,"""","""","""","2021-08-09 16:15:56",94.9.82.158,"Mozilla/5.0 (Windows NT 10.0; Win64; x64) AppleWebKit/537.36 (KHTML, like Gecko) Chrome/92.0.4515.131 Safari/537.36",WebKit,Chrome,92.0.4515.131,Windows,10.0,5f461dd6c139dd6b46c7596cbd57cd79
185,1,"""","""","""","""","""",sampler,10,122342,0.0-6.0-4.0,133,img/Cobalt.png,"""","""","""",false,-1,13.491632666509409,10,"""","""","""","2021-08-09 16:15:56",94.9.82.158,"Mozilla/5.0 (Windows NT 10.0; Win64; x64) AppleWebKit/537.36 (KHTML, like Gecko) Chrome/92.0.4515.131 Safari/537.36",WebKit,Chrome,92.0.4515.131,Windows,10.0,5f461dd6c139dd6b46c7596cbd57cd79
185,1,"""","""","""","""","""",sampler,11,122781,0.0-6.0-5.0,37,img/Cobalt.png,"""","""","""",false,-1,1.8639145338915175,10,"""","""","""","2021-08-09 16:15:56",94.9.82.158,"Mozilla/5.0 (Windows NT 10.0; Win64; x64) AppleWebKit/537.36 (KHTML, like Gecko) Chrome/92.0.4515.131 Safari/537.36",WebKit,Chrome,92.0.4515.131,Windows,10.0,5f461dd6c139dd6b46c7596cbd57cd79
185,1,"""","""","""","""","""",sampler,12,123198,0.0-6.0-6.0,14,img/Cobalt.png,"""","""","""",false,-1,13.003902697568392,10,"""","""","""","2021-08-09 16:15:56",94.9.82.158,"Mozilla/5.0 (Windows NT 10.0; Win64; x64) AppleWebKit/537.36 (KHTML, like Gecko) Chrome/92.0.4515.131 Safari/537.36",WebKit,Chrome,92.0.4515.131,Windows,10.0,5f461dd6c139dd6b46c7596cbd57cd79
185,1,"""","""","""","""","""",sampler,13,123612,0.0-6.0-7.0,11,img/Cobalt.png,"""","""","""",false,-1,6.206776775246346,10,"""","""","""","2021-08-09 16:15:56",94.9.82.158,"Mozilla/5.0 (Windows NT 10.0; Win64; x64) AppleWebKit/537.36 (KHTML, like Gecko) Chrome/92.0.4515.131 Safari/537.36",WebKit,Chrome,92.0.4515.131,Windows,10.0,5f461dd6c139dd6b46c7596cbd57cd79
185,1,"""","""","""","""","""",sampler,14,124045,0.0-6.0-8.0,31,img/Cobalt.png,"""","""","""",false,-1,0.9958624417172146,10,"""","""","""","2021-08-09 16:15:56",94.9.82.158,"Mozilla/5.0 (Windows NT 10.0; Win64; x64) AppleWebKit/537.36 (KHTML, like Gecko) Chrome/92.0.4515.131 Safari/537.36",WebKit,Chrome,92.0.4515.131,Windows,10.0,5f461dd6c139dd6b46c7596cbd57cd79
185,1,"""","""","""","""","""",sampler,15,124869,0.0-6.0-9.0,421,img/Cobalt.png,"""","""","""",false,-1,10.605009770749746,10,"""","""","""","2021-08-09 16:15:56",94.9.82.158,"Mozilla/5.0 (Windows NT 10.0; Win64; x64) AppleWebKit/537.36 (KHTML, like Gecko) Chrome/92.0.4515.131 Safari/537.36",WebKit,Chrome,92.0.4515.131,Windows,10.0,5f461dd6c139dd6b46c7596cbd57cd79
185,1,"""","""","""","""","""",sampler,16,125413,0.0-6.0-10.0,141,img/Cobalt.png,"""","""","""",false,-1,7.797201086754384,10,"""","""","""","2021-08-09 16:15:56",94.9.82.158,"Mozilla/5.0 (Windows NT 10.0; Win64; x64) AppleWebKit/537.36 (KHTML, like Gecko) Chrome/92.0.4515.131 Safari/537.36",WebKit,Chrome,92.0.4515.131,Windows,10.0,5f461dd6c139dd6b46c7596cbd57cd79
185,1,"""","""","""","""","""",sampler,17,125958,0.0-6.0-11.0,140,img/Cobalt.png,"""","""","""",false,-1,10.057903565952689,10,"""","""","""","2021-08-09 16:15:56",94.9.82.158,"Mozilla/5.0 (Windows NT 10.0; Win64; x64) AppleWebKit/537.36 (KHTML, like Gecko) Chrome/92.0.4515.131 Safari/537.36",WebKit,Chrome,92.0.4515.131,Windows,10.0,5f461dd6c139dd6b46c7596cbd57cd79
185,1,"""","""","""","""","""",sampler,18,126413,0.0-6.0-12.0,52,img/Cobalt.png,"""","""","""",false,-1,1.0207704844422576,10,"""","""","""","2021-08-09 16:15:56",94.9.82.158,"Mozilla/5.0 (Windows NT 10.0; Win64; x64) AppleWebKit/537.36 (KHTML, like Gecko) Chrome/92.0.4515.131 Safari/537.36",WebKit,Chrome,92.0.4515.131,Windows,10.0,5f461dd6c139dd6b46c7596cbd57cd79
185,1,"""","""","""","""","""",sampler,19,127006,0.0-6.0-13.0,189,img/Cobalt.png,"""","""","""",false,-1,8.872628654983554,10,"""","""","""","2021-08-09 16:15:56",94.9.82.158,"Mozilla/5.0 (Windows NT 10.0; Win64; x64) AppleWebKit/537.36 (KHTML, like Gecko) Chrome/92.0.4515.131 Safari/537.36",WebKit,Chrome,92.0.4515.131,Windows,10.0,5f461dd6c139dd6b46c7596cbd57cd79
185,1,"""","""","""","""","""",sampler,20,127453,0.0-6.0-14.0,43,img/Cobalt.png,"""","""","""",false,-1,15.69496537523928,10,"""","""","""","2021-08-09 16:15:56",94.9.82.158,"Mozilla/5.0 (Windows NT 10.0; Win64; x64) AppleWebKit/537.36 (KHTML, like Gecko) Chrome/92.0.4515.131 Safari/537.36",WebKit,Chrome,92.0.4515.131,Windows,10.0,5f461dd6c139dd6b46c7596cbd57cd79
185,1,"""","""","""","""","""",sampler,21,127981,0.0-6.0-15.0,126,img/Cobalt.png,"""","""","""",false,-1,1.7761647713375006,10,"""","""","""","2021-08-09 16:15:56",94.9.82.158,"Mozilla/5.0 (Windows NT 10.0; Win64; x64) AppleWebKit/537.36 (KHTML, like Gecko) Chrome/92.0.4515.131 Safari/537.36",WebKit,Chrome,92.0.4515.131,Windows,10.0,5f461dd6c139dd6b46c7596cbd57cd79
185,1,"""","""","""","""","""",sampler,22,128613,0.0-6.0-16.0,228,img/Cobalt.png,"""","""","""",false,-1,8.286172691030078,10,"""","""","""","2021-08-09 16:15:56",94.9.82.158,"Mozilla/5.0 (Windows NT 10.0; Win64; x64) AppleWebKit/537.36 (KHTML, like Gecko) Chrome/92.0.4515.131 Safari/537.36",WebKit,Chrome,92.0.4515.131,Windows,10.0,5f461dd6c139dd6b46c7596cbd57cd79
185,1,"""","""","""","""","""",sampler,23,129181,0.0-6.0-17.0,165,img/Cobalt.png,"""","""","""",false,-1,1.7231867196586532,10,"""","""","""","2021-08-09 16:15:56",94.9.82.158,"Mozilla/5.0 (Windows NT 10.0; Win64; x64) AppleWebKit/537.36 (KHTML, like Gecko) Chrome/92.0.4515.131 Safari/537.36",WebKit,Chrome,92.0.4515.131,Windows,10.0,5f461dd6c139dd6b46c7596cbd57cd79
185,1,"""","""","""","""","""",sampler,24,129733,0.0-6.0-18.0,149,img/Cobalt.png,"""","""","""",false,-1,14.871593176075452,10,"""","""","""","2021-08-09 16:15:56",94.9.82.158,"Mozilla/5.0 (Windows NT 10.0; Win64; x64) AppleWebKit/537.36 (KHTML, like Gecko) Chrome/92.0.4515.131 Safari/537.36",WebKit,Chrome,92.0.4515.131,Windows,10.0,5f461dd6c139dd6b46c7596cbd57cd79
185,1,"""","""","""","""","""",sampler,25,130317,0.0-6.0-19.0,181,img/Cobalt.png,"""","""","""",false,-1,17.632838574599184,10,"""","""","""","2021-08-09 16:15:56",94.9.82.158,"Mozilla/5.0 (Windows NT 10.0; Win64; x64) AppleWebKit/537.36 (KHTML, like Gecko) Chrome/92.0.4515.131 Safari/537.36",WebKit,Chrome,92.0.4515.131,Windows,10.0,5f461dd6c139dd6b46c7596cbd57cd79
185,1,"""","""","""","""","""",sampler,26,130725,0.0-6.0-20.0,6,img/Cobalt.png,"""","""","""",false,-1,5.945858994214216,10,"""","""","""","2021-08-09 16:15:56",94.9.82.158,"Mozilla/5.0 (Windows NT 10.0; Win64; x64) AppleWebKit/537.36 (KHTML, like Gecko) Chrome/92.0.4515.131 Safari/537.36",WebKit,Chrome,92.0.4515.131,Windows,10.0,5f461dd6c139dd6b46c7596cbd57cd79
185,1,"""","""","""","""","""",sampler,27,131135,0.0-6.0-21.0,3,img/Cobalt.png,"""","""","""",false,-1,13.336764731105362,10,"""","""","""","2021-08-09 16:15:56",94.9.82.158,"Mozilla/5.0 (Windows NT 10.0; Win64; x64) AppleWebKit/537.36 (KHTML, like Gecko) Chrome/92.0.4515.131 Safari/537.36",WebKit,Chrome,92.0.4515.131,Windows,10.0,5f461dd6c139dd6b46c7596cbd57cd79
185,1,"""","""","""","""","""",sampler,28,131549,0.0-6.0-22.0,11,img/Cobalt.png,"""","""","""",false,-1,-1.1390211747388737,10,"""","""","""","2021-08-09 16:15:56",94.9.82.158,"Mozilla/5.0 (Windows NT 10.0; Win64; x64) AppleWebKit/537.36 (KHTML, like Gecko) Chrome/92.0.4515.131 Safari/537.36",WebKit,Chrome,92.0.4515.131,Windows,10.0,5f461dd6c139dd6b46c7596cbd57cd79
185,1,"""","""","""","""","""",sampler,29,131958,0.0-6.0-23.0,6,img/Cobalt.png,"""","""","""",false,-1,-8.801813755779387,10,"""","""","""","2021-08-09 16:15:56",94.9.82.158,"Mozilla/5.0 (Windows NT 10.0; Win64; x64) AppleWebKit/537.36 (KHTML, like Gecko) Chrome/92.0.4515.131 Safari/537.36",WebKit,Chrome,92.0.4515.131,Windows,10.0,5f461dd6c139dd6b46c7596cbd57cd79
185,1,"""","""","""","""","""",sampler,30,132420,0.0-6.0-24.0,60,img/Cobalt.png,"""","""","""",false,-1,13.206887989392126,10,"""","""","""","2021-08-09 16:15:56",94.9.82.158,"Mozilla/5.0 (Windows NT 10.0; Win64; x64) AppleWebKit/537.36 (KHTML, like Gecko) Chrome/92.0.4515.131 Safari/537.36",WebKit,Chrome,92.0.4515.131,Windows,10.0,5f461dd6c139dd6b46c7596cbd57cd79
185,1,"""","""","""","""","""",sampler,31,132909,0.0-6.0-25.0,86,img/Cobalt.png,"""","""","""",false,-1,7.102123129467529,10,"""","""","""","2021-08-09 16:15:56",94.9.82.158,"Mozilla/5.0 (Windows NT 10.0; Win64; x64) AppleWebKit/537.36 (KHTML, like Gecko) Chrome/92.0.4515.131 Safari/537.36",WebKit,Chrome,92.0.4515.131,Windows,10.0,5f461dd6c139dd6b46c7596cbd57cd79
185,1,"""","""","""","""","""",sampler,32,133350,0.0-6.0-26.0,37,img/Cobalt.png,"""","""","""",false,-1,-4.155933348258692,10,"""","""","""","2021-08-09 16:15:56",94.9.82.158,"Mozilla/5.0 (Windows NT 10.0; Win64; x64) AppleWebKit/537.36 (KHTML, like Gecko) Chrome/92.0.4515.131 Safari/537.36",WebKit,Chrome,92.0.4515.131,Windows,10.0,5f461dd6c139dd6b46c7596cbd57cd79
185,1,"""","""","""","""","""",sampler,33,133835,0.0-6.0-27.0,77,img/Cobalt.png,"""","""","""",false,-1,8.10633454299868,10,"""","""","""","2021-08-09 16:15:56",94.9.82.158,"Mozilla/5.0 (Windows NT 10.0; Win64; x64) AppleWebKit/537.36 (KHTML, like Gecko) Chrome/92.0.4515.131 Safari/537.36",WebKit,Chrome,92.0.4515.131,Windows,10.0,5f461dd6c139dd6b46c7596cbd57cd79
185,1,"""","""","""","""","""",sampler,34,134368,0.0-6.0-28.0,119,img/Cobalt.png,"""","""","""",false,-1,-9.565368580893587,10,"""","""","""","2021-08-09 16:15:56",94.9.82.158,"Mozilla/5.0 (Windows NT 10.0; Win64; x64) AppleWebKit/537.36 (KHTML, like Gecko) Chrome/92.0.4515.131 Safari/537.36",WebKit,Chrome,92.0.4515.131,Windows,10.0,5f461dd6c139dd6b46c7596cbd57cd79
185,1,"""","""","""","""","""",sampler,35,134902,0.0-6.0-29.0,131,img/Cobalt.png,"""","""","""",false,-1,15.399051485259191,10,"""","""","""","2021-08-09 16:15:56",94.9.82.158,"Mozilla/5.0 (Windows NT 10.0; Win64; x64) AppleWebKit/537.36 (KHTML, like Gecko) Chrome/92.0.4515.131 Safari/537.36",WebKit,Chrome,92.0.4515.131,Windows,10.0,5f461dd6c139dd6b46c7596cbd57cd79
185,1,"""","""","""","""","""",sampler,36,135581,0.0-6.0-30.0,277,img/Cobalt.png,"""","""","""",false,-1,-3.4970354400143613,10,"""","""","""","2021-08-09 16:15:56",94.9.82.158,"Mozilla/5.0 (Windows NT 10.0; Win64; x64) AppleWebKit/537.36 (KHTML, like Gecko) Chrome/92.0.4515.131 Safari/537.36",WebKit,Chrome,92.0.4515.131,Windows,10.0,5f461dd6c139dd6b46c7596cbd57cd79
185,1,"""","""","""","""","""",sampler,37,136228,0.0-6.0-31.0,246,img/Cobalt.png,"""","""","""",false,-1,10.23726551990248,10,"""","""","""","2021-08-09 16:15:56",94.9.82.158,"Mozilla/5.0 (Windows NT 10.0; Win64; x64) AppleWebKit/537.36 (KHTML, like Gecko) Chrome/92.0.4515.131 Safari/537.36",WebKit,Chrome,92.0.4515.131,Windows,10.0,5f461dd6c139dd6b46c7596cbd57cd79
185,1,"""","""","""","""","""",sampler,38,136957,0.0-6.0-32.0,324,img/Cobalt.png,"""","""","""",false,-1,19.839383568694288,10,"""","""","""","2021-08-09 16:15:56",94.9.82.158,"Mozilla/5.0 (Windows NT 10.0; Win64; x64) AppleWebKit/537.36 (KHTML, like Gecko) Chrome/92.0.4515.131 Safari/537.36",WebKit,Chrome,92.0.4515.131,Windows,10.0,5f461dd6c139dd6b46c7596cbd57cd79
185,1,"""","""","""","""","""",sampler,39,137669,0.0-6.0-33.0,309,img/Cobalt.png,"""","""","""",false,-1,17.509148784580535,10,"""","""","""","2021-08-09 16:15:56",94.9.82.158,"Mozilla/5.0 (Windows NT 10.0; Win64; x64) AppleWebKit/537.36 (KHTML, like Gecko) Chrome/92.0.4515.131 Safari/537.36",WebKit,Chrome,92.0.4515.131,Windows,10.0,5f461dd6c139dd6b46c7596cbd57cd79
185,1,"""","""","""","""","""",sampler,40,138348,0.0-6.0-34.0,278,img/Cobalt.png,"""","""","""",false,-1,-1.5593044036797092,10,"""","""","""","2021-08-09 16:15:56",94.9.82.158,"Mozilla/5.0 (Windows NT 10.0; Win64; x64) AppleWebKit/537.36 (KHTML, like Gecko) Chrome/92.0.4515.131 Safari/537.36",WebKit,Chrome,92.0.4515.131,Windows,10.0,5f461dd6c139dd6b46c7596cbd57cd79
185,1,"""","""","""","""","""",sampler,41,139069,0.0-6.0-35.0,317,img/Cobalt.png,"""","""","""",false,-1,2.272808907086971,10,"""","""","""","2021-08-09 16:15:56",94.9.82.158,"Mozilla/5.0 (Windows NT 10.0; Win64; x64) AppleWebKit/537.36 (KHTML, like Gecko) Chrome/92.0.4515.131 Safari/537.36",WebKit,Chrome,92.0.4515.131,Windows,10.0,5f461dd6c139dd6b46c7596cbd57cd79
185,1,"""","""","""","""","""",sampler,42,140060,0.0-6.0-36.0,589,img/Cobalt.png,"""","""","""",false,-1,7.157205598003381,10,"""","""","""","2021-08-09 16:15:56",94.9.82.158,"Mozilla/5.0 (Windows NT 10.0; Win64; x64) AppleWebKit/537.36 (KHTML, like Gecko) Chrome/92.0.4515.131 Safari/537.36",WebKit,Chrome,92.0.4515.131,Windows,10.0,5f461dd6c139dd6b46c7596cbd57cd79
185,1,"""","""","""","""","""",sampler,43,140060,0.0-6.0-37.0,"""","""","""","""","""","""","""","""","""","""","""","""","2021-08-09 16:15:56",94.9.82.158,"Mozilla/5.0 (Windows NT 10.0; Win64; x64) AppleWebKit/537.36 (KHTML, like Gecko) Chrome/92.0.4515.131 Safari/537.36",WebKit,Chrome,92.0.4515.131,Windows,10.0,5f461dd6c139dd6b46c7596cbd57cd79
185,1,"""","""","""","""","""",sampler,44,140060,0.0-6.0-38.0,"""","""","""","""","""","""","""","""","""","""","""","""","2021-08-09 16:15:56",94.9.82.158,"Mozilla/5.0 (Windows NT 10.0; Win64; x64) AppleWebKit/537.36 (KHTML, like Gecko) Chrome/92.0.4515.131 Safari/537.36",WebKit,Chrome,92.0.4515.131,Windows,10.0,5f461dd6c139dd6b46c7596cbd57cd79
185,1,"""","""","""","""","""",sampler,45,140060,0.0-6.0-39.0,"""","""","""","""","""","""","""","""","""","""","""","""","2021-08-09 16:15:56",94.9.82.158,"Mozilla/5.0 (Windows NT 10.0; Win64; x64) AppleWebKit/537.36 (KHTML, like Gecko) Chrome/92.0.4515.131 Safari/537.36",WebKit,Chrome,92.0.4515.131,Windows,10.0,5f461dd6c139dd6b46c7596cbd57cd79
185,1,"""","""","""","""","""",sampler,46,140060,0.0-6.0-40.0,"""","""","""","""","""","""","""","""","""","""","""","""","2021-08-09 16:15:56",94.9.82.158,"Mozilla/5.0 (Windows NT 10.0; Win64; x64) AppleWebKit/537.36 (KHTML, like Gecko) Chrome/92.0.4515.131 Safari/537.36",WebKit,Chrome,92.0.4515.131,Windows,10.0,5f461dd6c139dd6b46c7596cbd57cd79
185,1,"""","""","""","""","""",sampler,47,140060,0.0-6.0-41.0,"""","""","""","""","""","""","""","""","""","""","""","""","2021-08-09 16:15:56",94.9.82.158,"Mozilla/5.0 (Windows NT 10.0; Win64; x64) AppleWebKit/537.36 (KHTML, like Gecko) Chrome/92.0.4515.131 Safari/537.36",WebKit,Chrome,92.0.4515.131,Windows,10.0,5f461dd6c139dd6b46c7596cbd57cd79
185,1,"""","""","""","""","""",sampler,48,140061,0.0-6.0-42.0,"""","""","""","""","""","""","""","""","""","""","""","""","2021-08-09 16:15:56",94.9.82.158,"Mozilla/5.0 (Windows NT 10.0; Win64; x64) AppleWebKit/537.36 (KHTML, like Gecko) Chrome/92.0.4515.131 Safari/537.36",WebKit,Chrome,92.0.4515.131,Windows,10.0,5f461dd6c139dd6b46c7596cbd57cd79
185,1,"""","""","""","""","""",sampler,49,140061,0.0-6.0-43.0,"""","""","""","""","""","""","""","""","""","""","""","""","2021-08-09 16:15:56",94.9.82.158,"Mozilla/5.0 (Windows NT 10.0; Win64; x64) AppleWebKit/537.36 (KHTML, like Gecko) Chrome/92.0.4515.131 Safari/537.36",WebKit,Chrome,92.0.4515.131,Windows,10.0,5f461dd6c139dd6b46c7596cbd57cd79
185,1,"""","""","""","""","""",sampler,50,140061,0.0-6.0-44.0,"""","""","""","""","""","""","""","""","""","""","""","""","2021-08-09 16:15:56",94.9.82.158,"Mozilla/5.0 (Windows NT 10.0; Win64; x64) AppleWebKit/537.36 (KHTML, like Gecko) Chrome/92.0.4515.131 Safari/537.36",WebKit,Chrome,92.0.4515.131,Windows,10.0,5f461dd6c139dd6b46c7596cbd57cd79
185,1,"""","""","""","""","""",sampler,51,140061,0.0-6.0-45.0,"""","""","""","""","""","""","""","""","""","""","""","""","2021-08-09 16:15:56",94.9.82.158,"Mozilla/5.0 (Windows NT 10.0; Win64; x64) AppleWebKit/537.36 (KHTML, like Gecko) Chrome/92.0.4515.131 Safari/537.36",WebKit,Chrome,92.0.4515.131,Windows,10.0,5f461dd6c139dd6b46c7596cbd57cd79
185,1,"""","""","""","""","""",sampler,52,140061,0.0-6.0-46.0,"""","""","""","""","""","""","""","""","""","""","""","""","2021-08-09 16:15:56",94.9.82.158,"Mozilla/5.0 (Windows NT 10.0; Win64; x64) AppleWebKit/537.36 (KHTML, like Gecko) Chrome/92.0.4515.131 Safari/537.36",WebKit,Chrome,92.0.4515.131,Windows,10.0,5f461dd6c139dd6b46c7596cbd57cd79
185,1,"""","""","""","""","""",sampler,53,140061,0.0-6.0-47.0,"""","""","""","""","""","""","""","""","""","""","""","""","2021-08-09 16:15:56",94.9.82.158,"Mozilla/5.0 (Windows NT 10.0; Win64; x64) AppleWebKit/537.36 (KHTML, like Gecko) Chrome/92.0.4515.131 Safari/537.36",WebKit,Chrome,92.0.4515.131,Windows,10.0,5f461dd6c139dd6b46c7596cbd57cd79
185,1,"""","""","""","""","""",sampler,54,140061,0.0-6.0-48.0,"""","""","""","""","""","""","""","""","""","""","""","""","2021-08-09 16:15:56",94.9.82.158,"Mozilla/5.0 (Windows NT 10.0; Win64; x64) AppleWebKit/537.36 (KHTML, like Gecko) Chrome/92.0.4515.131 Safari/537.36",WebKit,Chrome,92.0.4515.131,Windows,10.0,5f461dd6c139dd6b46c7596cbd57cd79
185,1,"""","""","""","""","""",sampler,55,140061,0.0-6.0-49.0,"""","""","""","""","""","""","""","""","""","""","""","""","2021-08-09 16:15:56",94.9.82.158,"Mozilla/5.0 (Windows NT 10.0; Win64; x64) AppleWebKit/537.36 (KHTML, like Gecko) Chrome/92.0.4515.131 Safari/537.36",WebKit,Chrome,92.0.4515.131,Windows,10.0,5f461dd6c139dd6b46c7596cbd57cd79
185,1,"""","""","""","""","""",sampler,56,140061,0.0-6.0-50.0,"""","""","""","""","""","""","""","""","""","""","""","""","2021-08-09 16:15:56",94.9.82.158,"Mozilla/5.0 (Windows NT 10.0; Win64; x64) AppleWebKit/537.36 (KHTML, like Gecko) Chrome/92.0.4515.131 Safari/537.36",WebKit,Chrome,92.0.4515.131,Windows,10.0,5f461dd6c139dd6b46c7596cbd57cd79
185,1,"""","""","""","""","""",sampler,57,140062,0.0-6.0-51.0,"""","""","""","""","""","""","""","""","""","""","""","""","2021-08-09 16:15:56",94.9.82.158,"Mozilla/5.0 (Windows NT 10.0; Win64; x64) AppleWebKit/537.36 (KHTML, like Gecko) Chrome/92.0.4515.131 Safari/537.36",WebKit,Chrome,92.0.4515.131,Windows,10.0,5f461dd6c139dd6b46c7596cbd57cd79
185,1,"""","""","""","""","""",sampler,58,140062,0.0-6.0-52.0,"""","""","""","""","""","""","""","""","""","""","""","""","2021-08-09 16:15:56",94.9.82.158,"Mozilla/5.0 (Windows NT 10.0; Win64; x64) AppleWebKit/537.36 (KHTML, like Gecko) Chrome/92.0.4515.131 Safari/537.36",WebKit,Chrome,92.0.4515.131,Windows,10.0,5f461dd6c139dd6b46c7596cbd57cd79
185,1,"""","""","""","""","""",sampler,59,140062,0.0-6.0-53.0,"""","""","""","""","""","""","""","""","""","""","""","""","2021-08-09 16:15:56",94.9.82.158,"Mozilla/5.0 (Windows NT 10.0; Win64; x64) AppleWebKit/537.36 (KHTML, like Gecko) Chrome/92.0.4515.131 Safari/537.36",WebKit,Chrome,92.0.4515.131,Windows,10.0,5f461dd6c139dd6b46c7596cbd57cd79
185,1,"""","""","""","""","""",sampler,60,140062,0.0-6.0-54.0,"""","""","""","""","""","""","""","""","""","""","""","""","2021-08-09 16:15:56",94.9.82.158,"Mozilla/5.0 (Windows NT 10.0; Win64; x64) AppleWebKit/537.36 (KHTML, like Gecko) Chrome/92.0.4515.131 Safari/537.36",WebKit,Chrome,92.0.4515.131,Windows,10.0,5f461dd6c139dd6b46c7596cbd57cd79
185,1,"""","""","""","""","""",sampler,61,140062,0.0-6.0-55.0,"""","""","""","""","""","""","""","""","""","""","""","""","2021-08-09 16:15:56",94.9.82.158,"Mozilla/5.0 (Windows NT 10.0; Win64; x64) AppleWebKit/537.36 (KHTML, like Gecko) Chrome/92.0.4515.131 Safari/537.36",WebKit,Chrome,92.0.4515.131,Windows,10.0,5f461dd6c139dd6b46c7596cbd57cd79
185,1,"""","""","""","""","""",sampler,62,140062,0.0-6.0-56.0,"""","""","""","""","""","""","""","""","""","""","""","""","2021-08-09 16:15:56",94.9.82.158,"Mozilla/5.0 (Windows NT 10.0; Win64; x64) AppleWebKit/537.36 (KHTML, like Gecko) Chrome/92.0.4515.131 Safari/537.36",WebKit,Chrome,92.0.4515.131,Windows,10.0,5f461dd6c139dd6b46c7596cbd57cd79
185,1,"""","""","""","""","""",sampler,63,140062,0.0-6.0-57.0,"""","""","""","""","""","""","""","""","""","""","""","""","2021-08-09 16:15:56",94.9.82.158,"Mozilla/5.0 (Windows NT 10.0; Win64; x64) AppleWebKit/537.36 (KHTML, like Gecko) Chrome/92.0.4515.131 Safari/537.36",WebKit,Chrome,92.0.4515.131,Windows,10.0,5f461dd6c139dd6b46c7596cbd57cd79
185,1,"""","""","""","""","""",sampler,64,140062,0.0-6.0-58.0,"""","""","""","""","""","""","""","""","""","""","""","""","2021-08-09 16:15:56",94.9.82.158,"Mozilla/5.0 (Windows NT 10.0; Win64; x64) AppleWebKit/537.36 (KHTML, like Gecko) Chrome/92.0.4515.131 Safari/537.36",WebKit,Chrome,92.0.4515.131,Windows,10.0,5f461dd6c139dd6b46c7596cbd57cd79
185,1,"""","""","""","""","""",sampler,65,140062,0.0-6.0-59.0,"""","""","""","""","""","""","""","""","""","""","""","""","2021-08-09 16:15:56",94.9.82.158,"Mozilla/5.0 (Windows NT 10.0; Win64; x64) AppleWebKit/537.36 (KHTML, like Gecko) Chrome/92.0.4515.131 Safari/537.36",WebKit,Chrome,92.0.4515.131,Windows,10.0,5f461dd6c139dd6b46c7596cbd57cd79
185,1,"""","""","""","""","""",sampler,66,140062,0.0-6.0-60.0,"""","""","""","""","""","""","""","""","""","""","""","""","2021-08-09 16:15:56",94.9.82.158,"Mozilla/5.0 (Windows NT 10.0; Win64; x64) AppleWebKit/537.36 (KHTML, like Gecko) Chrome/92.0.4515.131 Safari/537.36",WebKit,Chrome,92.0.4515.131,Windows,10.0,5f461dd6c139dd6b46c7596cbd57cd79
185,1,"""","""","""","""","""",sampler,67,140063,0.0-6.0-61.0,"""","""","""","""","""","""","""","""","""","""","""","""","2021-08-09 16:15:56",94.9.82.158,"Mozilla/5.0 (Windows NT 10.0; Win64; x64) AppleWebKit/537.36 (KHTML, like Gecko) Chrome/92.0.4515.131 Safari/537.36",WebKit,Chrome,92.0.4515.131,Windows,10.0,5f461dd6c139dd6b46c7596cbd57cd79
185,1,"""","""","""","""","""",sampler,68,140063,0.0-6.0-62.0,"""","""","""","""","""","""","""","""","""","""","""","""","2021-08-09 16:15:56",94.9.82.158,"Mozilla/5.0 (Windows NT 10.0; Win64; x64) AppleWebKit/537.36 (KHTML, like Gecko) Chrome/92.0.4515.131 Safari/537.36",WebKit,Chrome,92.0.4515.131,Windows,10.0,5f461dd6c139dd6b46c7596cbd57cd79
185,1,"""","""","""","""","""",sampler,69,140063,0.0-6.0-63.0,"""","""","""","""","""","""","""","""","""","""","""","""","2021-08-09 16:15:56",94.9.82.158,"Mozilla/5.0 (Windows NT 10.0; Win64; x64) AppleWebKit/537.36 (KHTML, like Gecko) Chrome/92.0.4515.131 Safari/537.36",WebKit,Chrome,92.0.4515.131,Windows,10.0,5f461dd6c139dd6b46c7596cbd57cd79
185,1,"""","""","""","""","""",sampler,70,140064,0.0-6.0-64.0,"""","""","""","""","""","""","""","""","""","""","""","""","2021-08-09 16:15:56",94.9.82.158,"Mozilla/5.0 (Windows NT 10.0; Win64; x64) AppleWebKit/537.36 (KHTML, like Gecko) Chrome/92.0.4515.131 Safari/537.36",WebKit,Chrome,92.0.4515.131,Windows,10.0,5f461dd6c139dd6b46c7596cbd57cd79
185,1,"""","""","""","""","""",sampler,71,140064,0.0-6.0-65.0,"""","""","""","""","""","""","""","""","""","""","""","""","2021-08-09 16:15:56",94.9.82.158,"Mozilla/5.0 (Windows NT 10.0; Win64; x64) AppleWebKit/537.36 (KHTML, like Gecko) Chrome/92.0.4515.131 Safari/537.36",WebKit,Chrome,92.0.4515.131,Windows,10.0,5f461dd6c139dd6b46c7596cbd57cd79
185,1,"""","""","""","""","""",sampler,72,140065,0.0-6.0-66.0,"""","""","""","""","""","""","""","""","""","""","""","""","2021-08-09 16:15:56",94.9.82.158,"Mozilla/5.0 (Windows NT 10.0; Win64; x64) AppleWebKit/537.36 (KHTML, like Gecko) Chrome/92.0.4515.131 Safari/537.36",WebKit,Chrome,92.0.4515.131,Windows,10.0,5f461dd6c139dd6b46c7596cbd57cd79
185,1,"""","""","""","""","""",sampler,73,140065,0.0-6.0-67.0,"""","""","""","""","""","""","""","""","""","""","""","""","2021-08-09 16:15:56",94.9.82.158,"Mozilla/5.0 (Windows NT 10.0; Win64; x64) AppleWebKit/537.36 (KHTML, like Gecko) Chrome/92.0.4515.131 Safari/537.36",WebKit,Chrome,92.0.4515.131,Windows,10.0,5f461dd6c139dd6b46c7596cbd57cd79
185,1,"""","""","""","""","""",sampler,74,140065,0.0-6.0-68.0,"""","""","""","""","""","""","""","""","""","""","""","""","2021-08-09 16:15:56",94.9.82.158,"Mozilla/5.0 (Windows NT 10.0; Win64; x64) AppleWebKit/537.36 (KHTML, like Gecko) Chrome/92.0.4515.131 Safari/537.36",WebKit,Chrome,92.0.4515.131,Windows,10.0,5f461dd6c139dd6b46c7596cbd57cd79
185,1,"""","""","""","""","""",sampler,75,140065,0.0-6.0-69.0,"""","""","""","""","""","""","""","""","""","""","""","""","2021-08-09 16:15:56",94.9.82.158,"Mozilla/5.0 (Windows NT 10.0; Win64; x64) AppleWebKit/537.36 (KHTML, like Gecko) Chrome/92.0.4515.131 Safari/537.36",WebKit,Chrome,92.0.4515.131,Windows,10.0,5f461dd6c139dd6b46c7596cbd57cd79
185,1,"""","""","""","""","""",sampler,76,140065,0.0-6.0-70.0,"""","""","""","""","""","""","""","""","""","""","""","""","2021-08-09 16:15:56",94.9.82.158,"Mozilla/5.0 (Windows NT 10.0; Win64; x64) AppleWebKit/537.36 (KHTML, like Gecko) Chrome/92.0.4515.131 Safari/537.36",WebKit,Chrome,92.0.4515.131,Windows,10.0,5f461dd6c139dd6b46c7596cbd57cd79
185,1,"""","""","""","""","""",sampler,77,140065,0.0-6.0-71.0,"""","""","""","""","""","""","""","""","""","""","""","""","2021-08-09 16:15:56",94.9.82.158,"Mozilla/5.0 (Windows NT 10.0; Win64; x64) AppleWebKit/537.36 (KHTML, like Gecko) Chrome/92.0.4515.131 Safari/537.36",WebKit,Chrome,92.0.4515.131,Windows,10.0,5f461dd6c139dd6b46c7596cbd57cd79
185,1,"""","""","""","""","""",sampler,78,140065,0.0-6.0-72.0,"""","""","""","""","""","""","""","""","""","""","""","""","2021-08-09 16:15:56",94.9.82.158,"Mozilla/5.0 (Windows NT 10.0; Win64; x64) AppleWebKit/537.36 (KHTML, like Gecko) Chrome/92.0.4515.131 Safari/537.36",WebKit,Chrome,92.0.4515.131,Windows,10.0,5f461dd6c139dd6b46c7596cbd57cd79
185,1,"""","""","""","""","""",sampler,79,140065,0.0-6.0-73.0,"""","""","""","""","""","""","""","""","""","""","""","""","2021-08-09 16:15:56",94.9.82.158,"Mozilla/5.0 (Windows NT 10.0; Win64; x64) AppleWebKit/537.36 (KHTML, like Gecko) Chrome/92.0.4515.131 Safari/537.36",WebKit,Chrome,92.0.4515.131,Windows,10.0,5f461dd6c139dd6b46c7596cbd57cd79
185,1,"""","""","""","""","""",sampler,80,140066,0.0-6.0-74.0,"""","""","""","""","""","""","""","""","""","""","""","""","2021-08-09 16:15:56",94.9.82.158,"Mozilla/5.0 (Windows NT 10.0; Win64; x64) AppleWebKit/537.36 (KHTML, like Gecko) Chrome/92.0.4515.131 Safari/537.36",WebKit,Chrome,92.0.4515.131,Windows,10.0,5f461dd6c139dd6b46c7596cbd57cd79
185,1,"""","""","""","""","""",sampler,81,140066,0.0-6.0-75.0,"""","""","""","""","""","""","""","""","""","""","""","""","2021-08-09 16:15:56",94.9.82.158,"Mozilla/5.0 (Windows NT 10.0; Win64; x64) AppleWebKit/537.36 (KHTML, like Gecko) Chrome/92.0.4515.131 Safari/537.36",WebKit,Chrome,92.0.4515.131,Windows,10.0,5f461dd6c139dd6b46c7596cbd57cd79
185,1,"""","""","""","""","""",sampler,82,140066,0.0-6.0-76.0,"""","""","""","""","""","""","""","""","""","""","""","""","2021-08-09 16:15:56",94.9.82.158,"Mozilla/5.0 (Windows NT 10.0; Win64; x64) AppleWebKit/537.36 (KHTML, like Gecko) Chrome/92.0.4515.131 Safari/537.36",WebKit,Chrome,92.0.4515.131,Windows,10.0,5f461dd6c139dd6b46c7596cbd57cd79
185,1,"""","""","""","""","""",sampler,83,140066,0.0-6.0-77.0,"""","""","""","""","""","""","""","""","""","""","""","""","2021-08-09 16:15:56",94.9.82.158,"Mozilla/5.0 (Windows NT 10.0; Win64; x64) AppleWebKit/537.36 (KHTML, like Gecko) Chrome/92.0.4515.131 Safari/537.36",WebKit,Chrome,92.0.4515.131,Windows,10.0,5f461dd6c139dd6b46c7596cbd57cd79
185,1,"""","""","""","""","""",sampler,84,140066,0.0-6.0-78.0,"""","""","""","""","""","""","""","""","""","""","""","""","2021-08-09 16:15:56",94.9.82.158,"Mozilla/5.0 (Windows NT 10.0; Win64; x64) AppleWebKit/537.36 (KHTML, like Gecko) Chrome/92.0.4515.131 Safari/537.36",WebKit,Chrome,92.0.4515.131,Windows,10.0,5f461dd6c139dd6b46c7596cbd57cd79
185,1,"""","""","""","""","""",sampler,85,140067,0.0-6.0-79.0,"""","""","""","""","""","""","""","""","""","""","""","""","2021-08-09 16:15:56",94.9.82.158,"Mozilla/5.0 (Windows NT 10.0; Win64; x64) AppleWebKit/537.36 (KHTML, like Gecko) Chrome/92.0.4515.131 Safari/537.36",WebKit,Chrome,92.0.4515.131,Windows,10.0,5f461dd6c139dd6b46c7596cbd57cd79
185,1,"""","""","""","""","""",sampler,86,140067,0.0-6.0-80.0,"""","""","""","""","""","""","""","""","""","""","""","""","2021-08-09 16:15:56",94.9.82.158,"Mozilla/5.0 (Windows NT 10.0; Win64; x64) AppleWebKit/537.36 (KHTML, like Gecko) Chrome/92.0.4515.131 Safari/537.36",WebKit,Chrome,92.0.4515.131,Windows,10.0,5f461dd6c139dd6b46c7596cbd57cd79
185,1,"""","""","""","""","""",sampler,87,140067,0.0-6.0-81.0,"""","""","""","""","""","""","""","""","""","""","""","""","2021-08-09 16:15:56",94.9.82.158,"Mozilla/5.0 (Windows NT 10.0; Win64; x64) AppleWebKit/537.36 (KHTML, like Gecko) Chrome/92.0.4515.131 Safari/537.36",WebKit,Chrome,92.0.4515.131,Windows,10.0,5f461dd6c139dd6b46c7596cbd57cd79
185,1,"""","""","""","""","""",sampler,88,140067,0.0-6.0-82.0,"""","""","""","""","""","""","""","""","""","""","""","""","2021-08-09 16:15:56",94.9.82.158,"Mozilla/5.0 (Windows NT 10.0; Win64; x64) AppleWebKit/537.36 (KHTML, like Gecko) Chrome/92.0.4515.131 Safari/537.36",WebKit,Chrome,92.0.4515.131,Windows,10.0,5f461dd6c139dd6b46c7596cbd57cd79
185,1,"""","""","""","""","""",sampler,89,140067,0.0-6.0-83.0,"""","""","""","""","""","""","""","""","""","""","""","""","2021-08-09 16:15:56",94.9.82.158,"Mozilla/5.0 (Windows NT 10.0; Win64; x64) AppleWebKit/537.36 (KHTML, like Gecko) Chrome/92.0.4515.131 Safari/537.36",WebKit,Chrome,92.0.4515.131,Windows,10.0,5f461dd6c139dd6b46c7596cbd57cd79
185,1,"""","""","""","""","""",sampler,90,140067,0.0-6.0-84.0,"""","""","""","""","""","""","""","""","""","""","""","""","2021-08-09 16:15:56",94.9.82.158,"Mozilla/5.0 (Windows NT 10.0; Win64; x64) AppleWebKit/537.36 (KHTML, like Gecko) Chrome/92.0.4515.131 Safari/537.36",WebKit,Chrome,92.0.4515.131,Windows,10.0,5f461dd6c139dd6b46c7596cbd57cd79
185,1,"""","""","""","""","""",sampler,91,140067,0.0-6.0-85.0,"""","""","""","""","""","""","""","""","""","""","""","""","2021-08-09 16:15:56",94.9.82.158,"Mozilla/5.0 (Windows NT 10.0; Win64; x64) AppleWebKit/537.36 (KHTML, like Gecko) Chrome/92.0.4515.131 Safari/537.36",WebKit,Chrome,92.0.4515.131,Windows,10.0,5f461dd6c139dd6b46c7596cbd57cd79
185,1,"""","""","""","""","""",sampler,92,140067,0.0-6.0-86.0,"""","""","""","""","""","""","""","""","""","""","""","""","2021-08-09 16:15:56",94.9.82.158,"Mozilla/5.0 (Windows NT 10.0; Win64; x64) AppleWebKit/537.36 (KHTML, like Gecko) Chrome/92.0.4515.131 Safari/537.36",WebKit,Chrome,92.0.4515.131,Windows,10.0,5f461dd6c139dd6b46c7596cbd57cd79
185,1,"""","""","""","""","""",sampler,93,140068,0.0-6.0-87.0,"""","""","""","""","""","""","""","""","""","""","""","""","2021-08-09 16:15:56",94.9.82.158,"Mozilla/5.0 (Windows NT 10.0; Win64; x64) AppleWebKit/537.36 (KHTML, like Gecko) Chrome/92.0.4515.131 Safari/537.36",WebKit,Chrome,92.0.4515.131,Windows,10.0,5f461dd6c139dd6b46c7596cbd57cd79
185,1,"""","""","""","""","""",sampler,94,140068,0.0-6.0-88.0,"""","""","""","""","""","""","""","""","""","""","""","""","2021-08-09 16:15:56",94.9.82.158,"Mozilla/5.0 (Windows NT 10.0; Win64; x64) AppleWebKit/537.36 (KHTML, like Gecko) Chrome/92.0.4515.131 Safari/537.36",WebKit,Chrome,92.0.4515.131,Windows,10.0,5f461dd6c139dd6b46c7596cbd57cd79
185,1,"""","""","""","""","""",sampler,95,140068,0.0-6.0-89.0,"""","""","""","""","""","""","""","""","""","""","""","""","2021-08-09 16:15:56",94.9.82.158,"Mozilla/5.0 (Windows NT 10.0; Win64; x64) AppleWebKit/537.36 (KHTML, like Gecko) Chrome/92.0.4515.131 Safari/537.36",WebKit,Chrome,92.0.4515.131,Windows,10.0,5f461dd6c139dd6b46c7596cbd57cd79
185,1,"""","""","""","""","""",sampler,96,140068,0.0-6.0-90.0,"""","""","""","""","""","""","""","""","""","""","""","""","2021-08-09 16:15:56",94.9.82.158,"Mozilla/5.0 (Windows NT 10.0; Win64; x64) AppleWebKit/537.36 (KHTML, like Gecko) Chrome/92.0.4515.131 Safari/537.36",WebKit,Chrome,92.0.4515.131,Windows,10.0,5f461dd6c139dd6b46c7596cbd57cd79
185,1,"""","""","""","""","""",sampler,97,140068,0.0-6.0-91.0,"""","""","""","""","""","""","""","""","""","""","""","""","2021-08-09 16:15:56",94.9.82.158,"Mozilla/5.0 (Windows NT 10.0; Win64; x64) AppleWebKit/537.36 (KHTML, like Gecko) Chrome/92.0.4515.131 Safari/537.36",WebKit,Chrome,92.0.4515.131,Windows,10.0,5f461dd6c139dd6b46c7596cbd57cd79
185,1,"""","""","""","""","""",sampler,98,140068,0.0-6.0-92.0,"""","""","""","""","""","""","""","""","""","""","""","""","2021-08-09 16:15:56",94.9.82.158,"Mozilla/5.0 (Windows NT 10.0; Win64; x64) AppleWebKit/537.36 (KHTML, like Gecko) Chrome/92.0.4515.131 Safari/537.36",WebKit,Chrome,92.0.4515.131,Windows,10.0,5f461dd6c139dd6b46c7596cbd57cd79
185,1,"""","""","""","""","""",sampler,99,140068,0.0-6.0-93.0,"""","""","""","""","""","""","""","""","""","""","""","""","2021-08-09 16:15:56",94.9.82.158,"Mozilla/5.0 (Windows NT 10.0; Win64; x64) AppleWebKit/537.36 (KHTML, like Gecko) Chrome/92.0.4515.131 Safari/537.36",WebKit,Chrome,92.0.4515.131,Windows,10.0,5f461dd6c139dd6b46c7596cbd57cd79
185,1,"""","""","""","""","""",sampler,100,140068,0.0-6.0-94.0,"""","""","""","""","""","""","""","""","""","""","""","""","2021-08-09 16:15:56",94.9.82.158,"Mozilla/5.0 (Windows NT 10.0; Win64; x64) AppleWebKit/537.36 (KHTML, like Gecko) Chrome/92.0.4515.131 Safari/537.36",WebKit,Chrome,92.0.4515.131,Windows,10.0,5f461dd6c139dd6b46c7596cbd57cd79
185,1,"""","""","""","""","""",sampler,101,140068,0.0-6.0-95.0,"""","""","""","""","""","""","""","""","""","""","""","""","2021-08-09 16:15:56",94.9.82.158,"Mozilla/5.0 (Windows NT 10.0; Win64; x64) AppleWebKit/537.36 (KHTML, like Gecko) Chrome/92.0.4515.131 Safari/537.36",WebKit,Chrome,92.0.4515.131,Windows,10.0,5f461dd6c139dd6b46c7596cbd57cd79
185,1,"""","""","""","""","""",sampler,102,140069,0.0-6.0-96.0,"""","""","""","""","""","""","""","""","""","""","""","""","2021-08-09 16:15:56",94.9.82.158,"Mozilla/5.0 (Windows NT 10.0; Win64; x64) AppleWebKit/537.36 (KHTML, like Gecko) Chrome/92.0.4515.131 Safari/537.36",WebKit,Chrome,92.0.4515.131,Windows,10.0,5f461dd6c139dd6b46c7596cbd57cd79
185,1,"""","""","""","""","""",sampler,103,140069,0.0-6.0-97.0,"""","""","""","""","""","""","""","""","""","""","""","""","2021-08-09 16:15:56",94.9.82.158,"Mozilla/5.0 (Windows NT 10.0; Win64; x64) AppleWebKit/537.36 (KHTML, like Gecko) Chrome/92.0.4515.131 Safari/537.36",WebKit,Chrome,92.0.4515.131,Windows,10.0,5f461dd6c139dd6b46c7596cbd57cd79
185,1,"""","""","""","""","""",sampler,104,140069,0.0-6.0-98.0,"""","""","""","""","""","""","""","""","""","""","""","""","2021-08-09 16:15:56",94.9.82.158,"Mozilla/5.0 (Windows NT 10.0; Win64; x64) AppleWebKit/537.36 (KHTML, like Gecko) Chrome/92.0.4515.131 Safari/537.36",WebKit,Chrome,92.0.4515.131,Windows,10.0,5f461dd6c139dd6b46c7596cbd57cd79
185,1,"""","""","""","""","""",sampler,105,140069,0.0-6.0-99.0,"""","""","""","""","""","""","""","""","""","""","""","""","2021-08-09 16:15:56",94.9.82.158,"Mozilla/5.0 (Windows NT 10.0; Win64; x64) AppleWebKit/537.36 (KHTML, like Gecko) Chrome/92.0.4515.131 Safari/537.36",WebKit,Chrome,92.0.4515.131,Windows,10.0,5f461dd6c139dd6b46c7596cbd57cd79
185,1,"""","""","""","""","""",sampler,106,140069,0.0-6.0-100.0,"""","""","""","""","""","""","""","""","""","""","""","""","2021-08-09 16:15:56",94.9.82.158,"Mozilla/5.0 (Windows NT 10.0; Win64; x64) AppleWebKit/537.36 (KHTML, like Gecko) Chrome/92.0.4515.131 Safari/537.36",WebKit,Chrome,92.0.4515.131,Windows,10.0,5f461dd6c139dd6b46c7596cbd57cd79
185,1,"""","""","""","""","""",sampler,107,140069,0.0-6.0-101.0,"""","""","""","""","""","""","""","""","""","""","""","""","2021-08-09 16:15:56",94.9.82.158,"Mozilla/5.0 (Windows NT 10.0; Win64; x64) AppleWebKit/537.36 (KHTML, like Gecko) Chrome/92.0.4515.131 Safari/537.36",WebKit,Chrome,92.0.4515.131,Windows,10.0,5f461dd6c139dd6b46c7596cbd57cd79
185,1,"""","""","""","""","""",sampler,108,140069,0.0-6.0-102.0,"""","""","""","""","""","""","""","""","""","""","""","""","2021-08-09 16:15:56",94.9.82.158,"Mozilla/5.0 (Windows NT 10.0; Win64; x64) AppleWebKit/537.36 (KHTML, like Gecko) Chrome/92.0.4515.131 Safari/537.36",WebKit,Chrome,92.0.4515.131,Windows,10.0,5f461dd6c139dd6b46c7596cbd57cd79
185,1,"""","""","""","""","""",sampler,109,140070,0.0-6.0-103.0,"""","""","""","""","""","""","""","""","""","""","""","""","2021-08-09 16:15:56",94.9.82.158,"Mozilla/5.0 (Windows NT 10.0; Win64; x64) AppleWebKit/537.36 (KHTML, like Gecko) Chrome/92.0.4515.131 Safari/537.36",WebKit,Chrome,92.0.4515.131,Windows,10.0,5f461dd6c139dd6b46c7596cbd57cd79
185,1,"""","""","""","""","""",sampler,110,140070,0.0-6.0-104.0,"""","""","""","""","""","""","""","""","""","""","""","""","2021-08-09 16:15:56",94.9.82.158,"Mozilla/5.0 (Windows NT 10.0; Win64; x64) AppleWebKit/537.36 (KHTML, like Gecko) Chrome/92.0.4515.131 Safari/537.36",WebKit,Chrome,92.0.4515.131,Windows,10.0,5f461dd6c139dd6b46c7596cbd57cd79
185,1,"""","""","""","""","""",sampler,111,140070,0.0-6.0-105.0,"""","""","""","""","""","""","""","""","""","""","""","""","2021-08-09 16:15:56",94.9.82.158,"Mozilla/5.0 (Windows NT 10.0; Win64; x64) AppleWebKit/537.36 (KHTML, like Gecko) Chrome/92.0.4515.131 Safari/537.36",WebKit,Chrome,92.0.4515.131,Windows,10.0,5f461dd6c139dd6b46c7596cbd57cd79
185,1,"""","""","""","""","""",sampler,112,140070,0.0-6.0-106.0,"""","""","""","""","""","""","""","""","""","""","""","""","2021-08-09 16:15:56",94.9.82.158,"Mozilla/5.0 (Windows NT 10.0; Win64; x64) AppleWebKit/537.36 (KHTML, like Gecko) Chrome/92.0.4515.131 Safari/537.36",WebKit,Chrome,92.0.4515.131,Windows,10.0,5f461dd6c139dd6b46c7596cbd57cd79
185,1,"""","""","""","""","""",sampler,113,140070,0.0-6.0-107.0,"""","""","""","""","""","""","""","""","""","""","""","""","2021-08-09 16:15:56",94.9.82.158,"Mozilla/5.0 (Windows NT 10.0; Win64; x64) AppleWebKit/537.36 (KHTML, like Gecko) Chrome/92.0.4515.131 Safari/537.36",WebKit,Chrome,92.0.4515.131,Windows,10.0,5f461dd6c139dd6b46c7596cbd57cd79
185,1,"""","""","""","""","""",sampler,114,140070,0.0-6.0-108.0,"""","""","""","""","""","""","""","""","""","""","""","""","2021-08-09 16:15:56",94.9.82.158,"Mozilla/5.0 (Windows NT 10.0; Win64; x64) AppleWebKit/537.36 (KHTML, like Gecko) Chrome/92.0.4515.131 Safari/537.36",WebKit,Chrome,92.0.4515.131,Windows,10.0,5f461dd6c139dd6b46c7596cbd57cd79
185,1,"""","""","""","""","""",sampler,115,140070,0.0-6.0-109.0,"""","""","""","""","""","""","""","""","""","""","""","""","2021-08-09 16:15:56",94.9.82.158,"Mozilla/5.0 (Windows NT 10.0; Win64; x64) AppleWebKit/537.36 (KHTML, like Gecko) Chrome/92.0.4515.131 Safari/537.36",WebKit,Chrome,92.0.4515.131,Windows,10.0,5f461dd6c139dd6b46c7596cbd57cd79
185,1,"""","""","""","""","""",sampler,116,140070,0.0-6.0-110.0,"""","""","""","""","""","""","""","""","""","""","""","""","2021-08-09 16:15:56",94.9.82.158,"Mozilla/5.0 (Windows NT 10.0; Win64; x64) AppleWebKit/537.36 (KHTML, like Gecko) Chrome/92.0.4515.131 Safari/537.36",WebKit,Chrome,92.0.4515.131,Windows,10.0,5f461dd6c139dd6b46c7596cbd57cd79
185,1,"""","""","""","""","""",sampler,117,140070,0.0-6.0-111.0,"""","""","""","""","""","""","""","""","""","""","""","""","2021-08-09 16:15:56",94.9.82.158,"Mozilla/5.0 (Windows NT 10.0; Win64; x64) AppleWebKit/537.36 (KHTML, like Gecko) Chrome/92.0.4515.131 Safari/537.36",WebKit,Chrome,92.0.4515.131,Windows,10.0,5f461dd6c139dd6b46c7596cbd57cd79
185,1,"""","""","""","""","""",sampler,118,140071,0.0-6.0-112.0,"""","""","""","""","""","""","""","""","""","""","""","""","2021-08-09 16:15:56",94.9.82.158,"Mozilla/5.0 (Windows NT 10.0; Win64; x64) AppleWebKit/537.36 (KHTML, like Gecko) Chrome/92.0.4515.131 Safari/537.36",WebKit,Chrome,92.0.4515.131,Windows,10.0,5f461dd6c139dd6b46c7596cbd57cd79
185,1,"""","""","""","""","""",sampler,119,140071,0.0-6.0-113.0,"""","""","""","""","""","""","""","""","""","""","""","""","2021-08-09 16:15:56",94.9.82.158,"Mozilla/5.0 (Windows NT 10.0; Win64; x64) AppleWebKit/537.36 (KHTML, like Gecko) Chrome/92.0.4515.131 Safari/537.36",WebKit,Chrome,92.0.4515.131,Windows,10.0,5f461dd6c139dd6b46c7596cbd57cd79
185,1,"""","""","""","""","""",sampler,120,140071,0.0-6.0-114.0,"""","""","""","""","""","""","""","""","""","""","""","""","2021-08-09 16:15:56",94.9.82.158,"Mozilla/5.0 (Windows NT 10.0; Win64; x64) AppleWebKit/537.36 (KHTML, like Gecko) Chrome/92.0.4515.131 Safari/537.36",WebKit,Chrome,92.0.4515.131,Windows,10.0,5f461dd6c139dd6b46c7596cbd57cd79
185,1,"""","""","""","""","""",sampler,121,140071,0.0-6.0-115.0,"""","""","""","""","""","""","""","""","""","""","""","""","2021-08-09 16:15:56",94.9.82.158,"Mozilla/5.0 (Windows NT 10.0; Win64; x64) AppleWebKit/537.36 (KHTML, like Gecko) Chrome/92.0.4515.131 Safari/537.36",WebKit,Chrome,92.0.4515.131,Windows,10.0,5f461dd6c139dd6b46c7596cbd57cd79
185,1,"""","""","""","""","""",sampler,122,140071,0.0-6.0-116.0,"""","""","""","""","""","""","""","""","""","""","""","""","2021-08-09 16:15:56",94.9.82.158,"Mozilla/5.0 (Windows NT 10.0; Win64; x64) AppleWebKit/537.36 (KHTML, like Gecko) Chrome/92.0.4515.131 Safari/537.36",WebKit,Chrome,92.0.4515.131,Windows,10.0,5f461dd6c139dd6b46c7596cbd57cd79
185,1,"""","""","""","""","""",sampler,123,140071,0.0-6.0-117.0,"""","""","""","""","""","""","""","""","""","""","""","""","2021-08-09 16:15:56",94.9.82.158,"Mozilla/5.0 (Windows NT 10.0; Win64; x64) AppleWebKit/537.36 (KHTML, like Gecko) Chrome/92.0.4515.131 Safari/537.36",WebKit,Chrome,92.0.4515.131,Windows,10.0,5f461dd6c139dd6b46c7596cbd57cd79
185,1,"""","""","""","""","""",sampler,124,140071,0.0-6.0-118.0,"""","""","""","""","""","""","""","""","""","""","""","""","2021-08-09 16:15:56",94.9.82.158,"Mozilla/5.0 (Windows NT 10.0; Win64; x64) AppleWebKit/537.36 (KHTML, like Gecko) Chrome/92.0.4515.131 Safari/537.36",WebKit,Chrome,92.0.4515.131,Windows,10.0,5f461dd6c139dd6b46c7596cbd57cd79
185,1,"""","""","""","""","""",sampler,125,140071,0.0-6.0-119.0,"""","""","""","""","""","""","""","""","""","""","""","""","2021-08-09 16:15:56",94.9.82.158,"Mozilla/5.0 (Windows NT 10.0; Win64; x64) AppleWebKit/537.36 (KHTML, like Gecko) Chrome/92.0.4515.131 Safari/537.36",WebKit,Chrome,92.0.4515.131,Windows,10.0,5f461dd6c139dd6b46c7596cbd57cd79
185,1,"""","""","""","""","""",sampler,126,140072,0.0-6.0-120.0,"""","""","""","""","""","""","""","""","""","""","""","""","2021-08-09 16:15:56",94.9.82.158,"Mozilla/5.0 (Windows NT 10.0; Win64; x64) AppleWebKit/537.36 (KHTML, like Gecko) Chrome/92.0.4515.131 Safari/537.36",WebKit,Chrome,92.0.4515.131,Windows,10.0,5f461dd6c139dd6b46c7596cbd57cd79
185,1,"""","""","""","""","""",sampler,127,140072,0.0-6.0-121.0,"""","""","""","""","""","""","""","""","""","""","""","""","2021-08-09 16:15:56",94.9.82.158,"Mozilla/5.0 (Windows NT 10.0; Win64; x64) AppleWebKit/537.36 (KHTML, like Gecko) Chrome/92.0.4515.131 Safari/537.36",WebKit,Chrome,92.0.4515.131,Windows,10.0,5f461dd6c139dd6b46c7596cbd57cd79
185,1,"""","""","""","""","""",sampler,128,140072,0.0-6.0-122.0,"""","""","""","""","""","""","""","""","""","""","""","""","2021-08-09 16:15:56",94.9.82.158,"Mozilla/5.0 (Windows NT 10.0; Win64; x64) AppleWebKit/537.36 (KHTML, like Gecko) Chrome/92.0.4515.131 Safari/537.36",WebKit,Chrome,92.0.4515.131,Windows,10.0,5f461dd6c139dd6b46c7596cbd57cd79
185,1,"""","""","""","""","""",sampler,129,140072,0.0-6.0-123.0,"""","""","""","""","""","""","""","""","""","""","""","""","2021-08-09 16:15:56",94.9.82.158,"Mozilla/5.0 (Windows NT 10.0; Win64; x64) AppleWebKit/537.36 (KHTML, like Gecko) Chrome/92.0.4515.131 Safari/537.36",WebKit,Chrome,92.0.4515.131,Windows,10.0,5f461dd6c139dd6b46c7596cbd57cd79
185,1,"""","""","""","""","""",sampler,130,140072,0.0-6.0-124.0,"""","""","""","""","""","""","""","""","""","""","""","""","2021-08-09 16:15:56",94.9.82.158,"Mozilla/5.0 (Windows NT 10.0; Win64; x64) AppleWebKit/537.36 (KHTML, like Gecko) Chrome/92.0.4515.131 Safari/537.36",WebKit,Chrome,92.0.4515.131,Windows,10.0,5f461dd6c139dd6b46c7596cbd57cd79
185,1,"""","""","""","""","""",sampler,131,140072,0.0-6.0-125.0,"""","""","""","""","""","""","""","""","""","""","""","""","2021-08-09 16:15:56",94.9.82.158,"Mozilla/5.0 (Windows NT 10.0; Win64; x64) AppleWebKit/537.36 (KHTML, like Gecko) Chrome/92.0.4515.131 Safari/537.36",WebKit,Chrome,92.0.4515.131,Windows,10.0,5f461dd6c139dd6b46c7596cbd57cd79
185,1,"""","""","""","""","""",sampler,132,140072,0.0-6.0-126.0,"""","""","""","""","""","""","""","""","""","""","""","""","2021-08-09 16:15:56",94.9.82.158,"Mozilla/5.0 (Windows NT 10.0; Win64; x64) AppleWebKit/537.36 (KHTML, like Gecko) Chrome/92.0.4515.131 Safari/537.36",WebKit,Chrome,92.0.4515.131,Windows,10.0,5f461dd6c139dd6b46c7596cbd57cd79
185,1,"""","""","""","""","""",sampler,133,140072,0.0-6.0-127.0,"""","""","""","""","""","""","""","""","""","""","""","""","2021-08-09 16:15:56",94.9.82.158,"Mozilla/5.0 (Windows NT 10.0; Win64; x64) AppleWebKit/537.36 (KHTML, like Gecko) Chrome/92.0.4515.131 Safari/537.36",WebKit,Chrome,92.0.4515.131,Windows,10.0,5f461dd6c139dd6b46c7596cbd57cd79
185,1,"""","""","""","""","""",sampler,134,140073,0.0-6.0-128.0,"""","""","""","""","""","""","""","""","""","""","""","""","2021-08-09 16:15:56",94.9.82.158,"Mozilla/5.0 (Windows NT 10.0; Win64; x64) AppleWebKit/537.36 (KHTML, like Gecko) Chrome/92.0.4515.131 Safari/537.36",WebKit,Chrome,92.0.4515.131,Windows,10.0,5f461dd6c139dd6b46c7596cbd57cd79
185,1,"""","""","""","""","""",sampler,135,140073,0.0-6.0-129.0,"""","""","""","""","""","""","""","""","""","""","""","""","2021-08-09 16:15:56",94.9.82.158,"Mozilla/5.0 (Windows NT 10.0; Win64; x64) AppleWebKit/537.36 (KHTML, like Gecko) Chrome/92.0.4515.131 Safari/537.36",WebKit,Chrome,92.0.4515.131,Windows,10.0,5f461dd6c139dd6b46c7596cbd57cd79
185,1,"""","""","""","""","""",sampler,136,140074,0.0-6.0-130.0,"""","""","""","""","""","""","""","""","""","""","""","""","2021-08-09 16:15:56",94.9.82.158,"Mozilla/5.0 (Windows NT 10.0; Win64; x64) AppleWebKit/537.36 (KHTML, like Gecko) Chrome/92.0.4515.131 Safari/537.36",WebKit,Chrome,92.0.4515.131,Windows,10.0,5f461dd6c139dd6b46c7596cbd57cd79
185,1,"""","""","""","""","""",sampler,137,140075,0.0-6.0-131.0,"""","""","""","""","""","""","""","""","""","""","""","""","2021-08-09 16:15:56",94.9.82.158,"Mozilla/5.0 (Windows NT 10.0; Win64; x64) AppleWebKit/537.36 (KHTML, like Gecko) Chrome/92.0.4515.131 Safari/537.36",WebKit,Chrome,92.0.4515.131,Windows,10.0,5f461dd6c139dd6b46c7596cbd57cd79
185,1,"""","""","""","""","""",sampler,138,140075,0.0-6.0-132.0,"""","""","""","""","""","""","""","""","""","""","""","""","2021-08-09 16:15:56",94.9.82.158,"Mozilla/5.0 (Windows NT 10.0; Win64; x64) AppleWebKit/537.36 (KHTML, like Gecko) Chrome/92.0.4515.131 Safari/537.36",WebKit,Chrome,92.0.4515.131,Windows,10.0,5f461dd6c139dd6b46c7596cbd57cd79
185,1,"""","""","""","""","""",sampler,139,140075,0.0-6.0-133.0,"""","""","""","""","""","""","""","""","""","""","""","""","2021-08-09 16:15:56",94.9.82.158,"Mozilla/5.0 (Windows NT 10.0; Win64; x64) AppleWebKit/537.36 (KHTML, like Gecko) Chrome/92.0.4515.131 Safari/537.36",WebKit,Chrome,92.0.4515.131,Windows,10.0,5f461dd6c139dd6b46c7596cbd57cd79
185,1,"""","""","""","""","""",sampler,140,140075,0.0-6.0-134.0,"""","""","""","""","""","""","""","""","""","""","""","""","2021-08-09 16:15:56",94.9.82.158,"Mozilla/5.0 (Windows NT 10.0; Win64; x64) AppleWebKit/537.36 (KHTML, like Gecko) Chrome/92.0.4515.131 Safari/537.36",WebKit,Chrome,92.0.4515.131,Windows,10.0,5f461dd6c139dd6b46c7596cbd57cd79
185,1,"""","""","""","""","""",sampler,141,140075,0.0-6.0-135.0,"""","""","""","""","""","""","""","""","""","""","""","""","2021-08-09 16:15:56",94.9.82.158,"Mozilla/5.0 (Windows NT 10.0; Win64; x64) AppleWebKit/537.36 (KHTML, like Gecko) Chrome/92.0.4515.131 Safari/537.36",WebKit,Chrome,92.0.4515.131,Windows,10.0,5f461dd6c139dd6b46c7596cbd57cd79
185,1,"""","""","""","""","""",sampler,142,140075,0.0-6.0-136.0,"""","""","""","""","""","""","""","""","""","""","""","""","2021-08-09 16:15:56",94.9.82.158,"Mozilla/5.0 (Windows NT 10.0; Win64; x64) AppleWebKit/537.36 (KHTML, like Gecko) Chrome/92.0.4515.131 Safari/537.36",WebKit,Chrome,92.0.4515.131,Windows,10.0,5f461dd6c139dd6b46c7596cbd57cd79
185,1,"""","""","""","""","""",sampler,143,140075,0.0-6.0-137.0,"""","""","""","""","""","""","""","""","""","""","""","""","2021-08-09 16:15:56",94.9.82.158,"Mozilla/5.0 (Windows NT 10.0; Win64; x64) AppleWebKit/537.36 (KHTML, like Gecko) Chrome/92.0.4515.131 Safari/537.36",WebKit,Chrome,92.0.4515.131,Windows,10.0,5f461dd6c139dd6b46c7596cbd57cd79
185,1,"""","""","""","""","""",sampler,144,140075,0.0-6.0-138.0,"""","""","""","""","""","""","""","""","""","""","""","""","2021-08-09 16:15:56",94.9.82.158,"Mozilla/5.0 (Windows NT 10.0; Win64; x64) AppleWebKit/537.36 (KHTML, like Gecko) Chrome/92.0.4515.131 Safari/537.36",WebKit,Chrome,92.0.4515.131,Windows,10.0,5f461dd6c139dd6b46c7596cbd57cd79
185,1,"""","""","""","""","""",sampler,145,140075,0.0-6.0-139.0,"""","""","""","""","""","""","""","""","""","""","""","""","2021-08-09 16:15:56",94.9.82.158,"Mozilla/5.0 (Windows NT 10.0; Win64; x64) AppleWebKit/537.36 (KHTML, like Gecko) Chrome/92.0.4515.131 Safari/537.36",WebKit,Chrome,92.0.4515.131,Windows,10.0,5f461dd6c139dd6b46c7596cbd57cd79
185,1,"""","""","""","""","""",sampler,146,140076,0.0-6.0-140.0,"""","""","""","""","""","""","""","""","""","""","""","""","2021-08-09 16:15:56",94.9.82.158,"Mozilla/5.0 (Windows NT 10.0; Win64; x64) AppleWebKit/537.36 (KHTML, like Gecko) Chrome/92.0.4515.131 Safari/537.36",WebKit,Chrome,92.0.4515.131,Windows,10.0,5f461dd6c139dd6b46c7596cbd57cd79
185,1,"""","""","""","""","""",sampler,147,140076,0.0-6.0-141.0,"""","""","""","""","""","""","""","""","""","""","""","""","2021-08-09 16:15:56",94.9.82.158,"Mozilla/5.0 (Windows NT 10.0; Win64; x64) AppleWebKit/537.36 (KHTML, like Gecko) Chrome/92.0.4515.131 Safari/537.36",WebKit,Chrome,92.0.4515.131,Windows,10.0,5f461dd6c139dd6b46c7596cbd57cd79
185,1,"""","""","""","""","""",sampler,148,140076,0.0-6.0-142.0,"""","""","""","""","""","""","""","""","""","""","""","""","2021-08-09 16:15:56",94.9.82.158,"Mozilla/5.0 (Windows NT 10.0; Win64; x64) AppleWebKit/537.36 (KHTML, like Gecko) Chrome/92.0.4515.131 Safari/537.36",WebKit,Chrome,92.0.4515.131,Windows,10.0,5f461dd6c139dd6b46c7596cbd57cd79
185,1,"""","""","""","""","""",sampler,149,140076,0.0-6.0-143.0,"""","""","""","""","""","""","""","""","""","""","""","""","2021-08-09 16:15:56",94.9.82.158,"Mozilla/5.0 (Windows NT 10.0; Win64; x64) AppleWebKit/537.36 (KHTML, like Gecko) Chrome/92.0.4515.131 Safari/537.36",WebKit,Chrome,92.0.4515.131,Windows,10.0,5f461dd6c139dd6b46c7596cbd57cd79
185,1,"""","""","""","""","""",sampler,150,140076,0.0-6.0-144.0,"""","""","""","""","""","""","""","""","""","""","""","""","2021-08-09 16:15:56",94.9.82.158,"Mozilla/5.0 (Windows NT 10.0; Win64; x64) AppleWebKit/537.36 (KHTML, like Gecko) Chrome/92.0.4515.131 Safari/537.36",WebKit,Chrome,92.0.4515.131,Windows,10.0,5f461dd6c139dd6b46c7596cbd57cd79
185,1,"""","""","""","""","""",sampler,151,140076,0.0-6.0-145.0,"""","""","""","""","""","""","""","""","""","""","""","""","2021-08-09 16:15:56",94.9.82.158,"Mozilla/5.0 (Windows NT 10.0; Win64; x64) AppleWebKit/537.36 (KHTML, like Gecko) Chrome/92.0.4515.131 Safari/537.36",WebKit,Chrome,92.0.4515.131,Windows,10.0,5f461dd6c139dd6b46c7596cbd57cd79
185,1,"""","""","""","""","""",sampler,152,140076,0.0-6.0-146.0,"""","""","""","""","""","""","""","""","""","""","""","""","2021-08-09 16:15:56",94.9.82.158,"Mozilla/5.0 (Windows NT 10.0; Win64; x64) AppleWebKit/537.36 (KHTML, like Gecko) Chrome/92.0.4515.131 Safari/537.36",WebKit,Chrome,92.0.4515.131,Windows,10.0,5f461dd6c139dd6b46c7596cbd57cd79
185,1,"""","""","""","""","""",sampler,153,140076,0.0-6.0-147.0,"""","""","""","""","""","""","""","""","""","""","""","""","2021-08-09 16:15:56",94.9.82.158,"Mozilla/5.0 (Windows NT 10.0; Win64; x64) AppleWebKit/537.36 (KHTML, like Gecko) Chrome/92.0.4515.131 Safari/537.36",WebKit,Chrome,92.0.4515.131,Windows,10.0,5f461dd6c139dd6b46c7596cbd57cd79
185,1,"""","""","""","""","""",sampler,154,140076,0.0-6.0-148.0,"""","""","""","""","""","""","""","""","""","""","""","""","2021-08-09 16:15:56",94.9.82.158,"Mozilla/5.0 (Windows NT 10.0; Win64; x64) AppleWebKit/537.36 (KHTML, like Gecko) Chrome/92.0.4515.131 Safari/537.36",WebKit,Chrome,92.0.4515.131,Windows,10.0,5f461dd6c139dd6b46c7596cbd57cd79
185,1,"""","""","""","""","""",sampler,155,140076,0.0-6.0-149.0,"""","""","""","""","""","""","""","""","""","""","""","""","2021-08-09 16:15:56",94.9.82.158,"Mozilla/5.0 (Windows NT 10.0; Win64; x64) AppleWebKit/537.36 (KHTML, like Gecko) Chrome/92.0.4515.131 Safari/537.36",WebKit,Chrome,92.0.4515.131,Windows,10.0,5f461dd6c139dd6b46c7596cbd57cd79
185,1,"""","""","""","""","""",sampler,156,140077,0.0-6.0-150.0,"""","""","""","""","""","""","""","""","""","""","""","""","2021-08-09 16:15:56",94.9.82.158,"Mozilla/5.0 (Windows NT 10.0; Win64; x64) AppleWebKit/537.36 (KHTML, like Gecko) Chrome/92.0.4515.131 Safari/537.36",WebKit,Chrome,92.0.4515.131,Windows,10.0,5f461dd6c139dd6b46c7596cbd57cd79
185,1,"""","""","""","""","""",sampler,157,140077,0.0-6.0-151.0,"""","""","""","""","""","""","""","""","""","""","""","""","2021-08-09 16:15:56",94.9.82.158,"Mozilla/5.0 (Windows NT 10.0; Win64; x64) AppleWebKit/537.36 (KHTML, like Gecko) Chrome/92.0.4515.131 Safari/537.36",WebKit,Chrome,92.0.4515.131,Windows,10.0,5f461dd6c139dd6b46c7596cbd57cd79
185,1,"""","""","""","""","""",sampler,158,140077,0.0-6.0-152.0,"""","""","""","""","""","""","""","""","""","""","""","""","2021-08-09 16:15:56",94.9.82.158,"Mozilla/5.0 (Windows NT 10.0; Win64; x64) AppleWebKit/537.36 (KHTML, like Gecko) Chrome/92.0.4515.131 Safari/537.36",WebKit,Chrome,92.0.4515.131,Windows,10.0,5f461dd6c139dd6b46c7596cbd57cd79
185,1,"""","""","""","""","""",sampler,159,140077,0.0-6.0-153.0,"""","""","""","""","""","""","""","""","""","""","""","""","2021-08-09 16:15:56",94.9.82.158,"Mozilla/5.0 (Windows NT 10.0; Win64; x64) AppleWebKit/537.36 (KHTML, like Gecko) Chrome/92.0.4515.131 Safari/537.36",WebKit,Chrome,92.0.4515.131,Windows,10.0,5f461dd6c139dd6b46c7596cbd57cd79
185,1,"""","""","""","""","""",sampler,160,140077,0.0-6.0-154.0,"""","""","""","""","""","""","""","""","""","""","""","""","2021-08-09 16:15:56",94.9.82.158,"Mozilla/5.0 (Windows NT 10.0; Win64; x64) AppleWebKit/537.36 (KHTML, like Gecko) Chrome/92.0.4515.131 Safari/537.36",WebKit,Chrome,92.0.4515.131,Windows,10.0,5f461dd6c139dd6b46c7596cbd57cd79
185,1,"""","""","""","""","""",sampler,161,140077,0.0-6.0-155.0,"""","""","""","""","""","""","""","""","""","""","""","""","2021-08-09 16:15:56",94.9.82.158,"Mozilla/5.0 (Windows NT 10.0; Win64; x64) AppleWebKit/537.36 (KHTML, like Gecko) Chrome/92.0.4515.131 Safari/537.36",WebKit,Chrome,92.0.4515.131,Windows,10.0,5f461dd6c139dd6b46c7596cbd57cd79
185,1,"""","""","""","""","""",sampler,162,140077,0.0-6.0-156.0,"""","""","""","""","""","""","""","""","""","""","""","""","2021-08-09 16:15:56",94.9.82.158,"Mozilla/5.0 (Windows NT 10.0; Win64; x64) AppleWebKit/537.36 (KHTML, like Gecko) Chrome/92.0.4515.131 Safari/537.36",WebKit,Chrome,92.0.4515.131,Windows,10.0,5f461dd6c139dd6b46c7596cbd57cd79
185,1,"""","""","""","""","""",sampler,163,140077,0.0-6.0-157.0,"""","""","""","""","""","""","""","""","""","""","""","""","2021-08-09 16:15:56",94.9.82.158,"Mozilla/5.0 (Windows NT 10.0; Win64; x64) AppleWebKit/537.36 (KHTML, like Gecko) Chrome/92.0.4515.131 Safari/537.36",WebKit,Chrome,92.0.4515.131,Windows,10.0,5f461dd6c139dd6b46c7596cbd57cd79
185,1,"""","""","""","""","""",sampler,164,140077,0.0-6.0-158.0,"""","""","""","""","""","""","""","""","""","""","""","""","2021-08-09 16:15:56",94.9.82.158,"Mozilla/5.0 (Windows NT 10.0; Win64; x64) AppleWebKit/537.36 (KHTML, like Gecko) Chrome/92.0.4515.131 Safari/537.36",WebKit,Chrome,92.0.4515.131,Windows,10.0,5f461dd6c139dd6b46c7596cbd57cd79
185,1,"""","""","""","""","""",sampler,165,140077,0.0-6.0-159.0,"""","""","""","""","""","""","""","""","""","""","""","""","2021-08-09 16:15:56",94.9.82.158,"Mozilla/5.0 (Windows NT 10.0; Win64; x64) AppleWebKit/537.36 (KHTML, like Gecko) Chrome/92.0.4515.131 Safari/537.36",WebKit,Chrome,92.0.4515.131,Windows,10.0,5f461dd6c139dd6b46c7596cbd57cd79
185,1,"""","""","""","""","""",sampler,166,140077,0.0-6.0-160.0,"""","""","""","""","""","""","""","""","""","""","""","""","2021-08-09 16:15:56",94.9.82.158,"Mozilla/5.0 (Windows NT 10.0; Win64; x64) AppleWebKit/537.36 (KHTML, like Gecko) Chrome/92.0.4515.131 Safari/537.36",WebKit,Chrome,92.0.4515.131,Windows,10.0,5f461dd6c139dd6b46c7596cbd57cd79
185,1,"""","""","""","""","""",sampler,167,140078,0.0-6.0-161.0,"""","""","""","""","""","""","""","""","""","""","""","""","2021-08-09 16:15:56",94.9.82.158,"Mozilla/5.0 (Windows NT 10.0; Win64; x64) AppleWebKit/537.36 (KHTML, like Gecko) Chrome/92.0.4515.131 Safari/537.36",WebKit,Chrome,92.0.4515.131,Windows,10.0,5f461dd6c139dd6b46c7596cbd57cd79
185,1,"""","""","""","""","""",sampler,168,140078,0.0-6.0-162.0,"""","""","""","""","""","""","""","""","""","""","""","""","2021-08-09 16:15:56",94.9.82.158,"Mozilla/5.0 (Windows NT 10.0; Win64; x64) AppleWebKit/537.36 (KHTML, like Gecko) Chrome/92.0.4515.131 Safari/537.36",WebKit,Chrome,92.0.4515.131,Windows,10.0,5f461dd6c139dd6b46c7596cbd57cd79
185,1,"""","""","""","""","""",sampler,169,140078,0.0-6.0-163.0,"""","""","""","""","""","""","""","""","""","""","""","""","2021-08-09 16:15:56",94.9.82.158,"Mozilla/5.0 (Windows NT 10.0; Win64; x64) AppleWebKit/537.36 (KHTML, like Gecko) Chrome/92.0.4515.131 Safari/537.36",WebKit,Chrome,92.0.4515.131,Windows,10.0,5f461dd6c139dd6b46c7596cbd57cd79
185,1,"""","""","""","""","""",sampler,170,140078,0.0-6.0-164.0,"""","""","""","""","""","""","""","""","""","""","""","""","2021-08-09 16:15:56",94.9.82.158,"Mozilla/5.0 (Windows NT 10.0; Win64; x64) AppleWebKit/537.36 (KHTML, like Gecko) Chrome/92.0.4515.131 Safari/537.36",WebKit,Chrome,92.0.4515.131,Windows,10.0,5f461dd6c139dd6b46c7596cbd57cd79
185,1,"""","""","""","""","""",sampler,171,140078,0.0-6.0-165.0,"""","""","""","""","""","""","""","""","""","""","""","""","2021-08-09 16:15:56",94.9.82.158,"Mozilla/5.0 (Windows NT 10.0; Win64; x64) AppleWebKit/537.36 (KHTML, like Gecko) Chrome/92.0.4515.131 Safari/537.36",WebKit,Chrome,92.0.4515.131,Windows,10.0,5f461dd6c139dd6b46c7596cbd57cd79
185,1,"""","""","""","""","""",sampler,172,140078,0.0-6.0-166.0,"""","""","""","""","""","""","""","""","""","""","""","""","2021-08-09 16:15:56",94.9.82.158,"Mozilla/5.0 (Windows NT 10.0; Win64; x64) AppleWebKit/537.36 (KHTML, like Gecko) Chrome/92.0.4515.131 Safari/537.36",WebKit,Chrome,92.0.4515.131,Windows,10.0,5f461dd6c139dd6b46c7596cbd57cd79
185,1,"""","""","""","""","""",sampler,173,140078,0.0-6.0-167.0,"""","""","""","""","""","""","""","""","""","""","""","""","2021-08-09 16:15:56",94.9.82.158,"Mozilla/5.0 (Windows NT 10.0; Win64; x64) AppleWebKit/537.36 (KHTML, like Gecko) Chrome/92.0.4515.131 Safari/537.36",WebKit,Chrome,92.0.4515.131,Windows,10.0,5f461dd6c139dd6b46c7596cbd57cd79
185,1,"""","""","""","""","""",sampler,174,140078,0.0-6.0-168.0,"""","""","""","""","""","""","""","""","""","""","""","""","2021-08-09 16:15:56",94.9.82.158,"Mozilla/5.0 (Windows NT 10.0; Win64; x64) AppleWebKit/537.36 (KHTML, like Gecko) Chrome/92.0.4515.131 Safari/537.36",WebKit,Chrome,92.0.4515.131,Windows,10.0,5f461dd6c139dd6b46c7596cbd57cd79
185,1,"""","""","""","""","""",sampler,175,140078,0.0-6.0-169.0,"""","""","""","""","""","""","""","""","""","""","""","""","2021-08-09 16:15:56",94.9.82.158,"Mozilla/5.0 (Windows NT 10.0; Win64; x64) AppleWebKit/537.36 (KHTML, like Gecko) Chrome/92.0.4515.131 Safari/537.36",WebKit,Chrome,92.0.4515.131,Windows,10.0,5f461dd6c139dd6b46c7596cbd57cd79
185,1,"""","""","""","""","""",sampler,176,140078,0.0-6.0-170.0,"""","""","""","""","""","""","""","""","""","""","""","""","2021-08-09 16:15:56",94.9.82.158,"Mozilla/5.0 (Windows NT 10.0; Win64; x64) AppleWebKit/537.36 (KHTML, like Gecko) Chrome/92.0.4515.131 Safari/537.36",WebKit,Chrome,92.0.4515.131,Windows,10.0,5f461dd6c139dd6b46c7596cbd57cd79
185,1,"""","""","""","""","""",sampler,177,140078,0.0-6.0-171.0,"""","""","""","""","""","""","""","""","""","""","""","""","2021-08-09 16:15:56",94.9.82.158,"Mozilla/5.0 (Windows NT 10.0; Win64; x64) AppleWebKit/537.36 (KHTML, like Gecko) Chrome/92.0.4515.131 Safari/537.36",WebKit,Chrome,92.0.4515.131,Windows,10.0,5f461dd6c139dd6b46c7596cbd57cd79
185,1,"""","""","""","""","""",sampler,178,140079,0.0-6.0-172.0,"""","""","""","""","""","""","""","""","""","""","""","""","2021-08-09 16:15:56",94.9.82.158,"Mozilla/5.0 (Windows NT 10.0; Win64; x64) AppleWebKit/537.36 (KHTML, like Gecko) Chrome/92.0.4515.131 Safari/537.36",WebKit,Chrome,92.0.4515.131,Windows,10.0,5f461dd6c139dd6b46c7596cbd57cd79
185,1,"""","""","""","""","""",sampler,179,140079,0.0-6.0-173.0,"""","""","""","""","""","""","""","""","""","""","""","""","2021-08-09 16:15:56",94.9.82.158,"Mozilla/5.0 (Windows NT 10.0; Win64; x64) AppleWebKit/537.36 (KHTML, like Gecko) Chrome/92.0.4515.131 Safari/537.36",WebKit,Chrome,92.0.4515.131,Windows,10.0,5f461dd6c139dd6b46c7596cbd57cd79
185,1,"""","""","""","""","""",sampler,180,140079,0.0-6.0-174.0,"""","""","""","""","""","""","""","""","""","""","""","""","2021-08-09 16:15:56",94.9.82.158,"Mozilla/5.0 (Windows NT 10.0; Win64; x64) AppleWebKit/537.36 (KHTML, like Gecko) Chrome/92.0.4515.131 Safari/537.36",WebKit,Chrome,92.0.4515.131,Windows,10.0,5f461dd6c139dd6b46c7596cbd57cd79
185,1,"""","""","""","""","""",sampler,181,140079,0.0-6.0-175.0,"""","""","""","""","""","""","""","""","""","""","""","""","2021-08-09 16:15:56",94.9.82.158,"Mozilla/5.0 (Windows NT 10.0; Win64; x64) AppleWebKit/537.36 (KHTML, like Gecko) Chrome/92.0.4515.131 Safari/537.36",WebKit,Chrome,92.0.4515.131,Windows,10.0,5f461dd6c139dd6b46c7596cbd57cd79
185,1,"""","""","""","""","""",sampler,182,140079,0.0-6.0-176.0,"""","""","""","""","""","""","""","""","""","""","""","""","2021-08-09 16:15:56",94.9.82.158,"Mozilla/5.0 (Windows NT 10.0; Win64; x64) AppleWebKit/537.36 (KHTML, like Gecko) Chrome/92.0.4515.131 Safari/537.36",WebKit,Chrome,92.0.4515.131,Windows,10.0,5f461dd6c139dd6b46c7596cbd57cd79
185,1,"""","""","""","""","""",sampler,183,140079,0.0-6.0-177.0,"""","""","""","""","""","""","""","""","""","""","""","""","2021-08-09 16:15:56",94.9.82.158,"Mozilla/5.0 (Windows NT 10.0; Win64; x64) AppleWebKit/537.36 (KHTML, like Gecko) Chrome/92.0.4515.131 Safari/537.36",WebKit,Chrome,92.0.4515.131,Windows,10.0,5f461dd6c139dd6b46c7596cbd57cd79
185,1,"""","""","""","""","""",sampler,184,140079,0.0-6.0-178.0,"""","""","""","""","""","""","""","""","""","""","""","""","2021-08-09 16:15:56",94.9.82.158,"Mozilla/5.0 (Windows NT 10.0; Win64; x64) AppleWebKit/537.36 (KHTML, like Gecko) Chrome/92.0.4515.131 Safari/537.36",WebKit,Chrome,92.0.4515.131,Windows,10.0,5f461dd6c139dd6b46c7596cbd57cd79
185,1,"""","""","""","""","""",sampler,185,140079,0.0-6.0-179.0,"""","""","""","""","""","""","""","""","""","""","""","""","2021-08-09 16:15:56",94.9.82.158,"Mozilla/5.0 (Windows NT 10.0; Win64; x64) AppleWebKit/537.36 (KHTML, like Gecko) Chrome/92.0.4515.131 Safari/537.36",WebKit,Chrome,92.0.4515.131,Windows,10.0,5f461dd6c139dd6b46c7596cbd57cd79
185,1,"""","""","""","""","""",sampler,186,140079,0.0-6.0-180.0,"""","""","""","""","""","""","""","""","""","""","""","""","2021-08-09 16:15:56",94.9.82.158,"Mozilla/5.0 (Windows NT 10.0; Win64; x64) AppleWebKit/537.36 (KHTML, like Gecko) Chrome/92.0.4515.131 Safari/537.36",WebKit,Chrome,92.0.4515.131,Windows,10.0,5f461dd6c139dd6b46c7596cbd57cd79
185,1,"""","""","""","""","""",sampler,187,140080,0.0-6.0-181.0,"""","""","""","""","""","""","""","""","""","""","""","""","2021-08-09 16:15:56",94.9.82.158,"Mozilla/5.0 (Windows NT 10.0; Win64; x64) AppleWebKit/537.36 (KHTML, like Gecko) Chrome/92.0.4515.131 Safari/537.36",WebKit,Chrome,92.0.4515.131,Windows,10.0,5f461dd6c139dd6b46c7596cbd57cd79
185,1,"""","""","""","""","""",sampler,188,140080,0.0-6.0-182.0,"""","""","""","""","""","""","""","""","""","""","""","""","2021-08-09 16:15:56",94.9.82.158,"Mozilla/5.0 (Windows NT 10.0; Win64; x64) AppleWebKit/537.36 (KHTML, like Gecko) Chrome/92.0.4515.131 Safari/537.36",WebKit,Chrome,92.0.4515.131,Windows,10.0,5f461dd6c139dd6b46c7596cbd57cd79
185,1,"""","""","""","""","""",sampler,189,140080,0.0-6.0-183.0,"""","""","""","""","""","""","""","""","""","""","""","""","2021-08-09 16:15:56",94.9.82.158,"Mozilla/5.0 (Windows NT 10.0; Win64; x64) AppleWebKit/537.36 (KHTML, like Gecko) Chrome/92.0.4515.131 Safari/537.36",WebKit,Chrome,92.0.4515.131,Windows,10.0,5f461dd6c139dd6b46c7596cbd57cd79
185,1,"""","""","""","""","""",sampler,190,140080,0.0-6.0-184.0,"""","""","""","""","""","""","""","""","""","""","""","""","2021-08-09 16:15:56",94.9.82.158,"Mozilla/5.0 (Windows NT 10.0; Win64; x64) AppleWebKit/537.36 (KHTML, like Gecko) Chrome/92.0.4515.131 Safari/537.36",WebKit,Chrome,92.0.4515.131,Windows,10.0,5f461dd6c139dd6b46c7596cbd57cd79
185,1,"""","""","""","""","""",sampler,191,140080,0.0-6.0-185.0,"""","""","""","""","""","""","""","""","""","""","""","""","2021-08-09 16:15:56",94.9.82.158,"Mozilla/5.0 (Windows NT 10.0; Win64; x64) AppleWebKit/537.36 (KHTML, like Gecko) Chrome/92.0.4515.131 Safari/537.36",WebKit,Chrome,92.0.4515.131,Windows,10.0,5f461dd6c139dd6b46c7596cbd57cd79
185,1,"""","""","""","""","""",sampler,192,140080,0.0-6.0-186.0,"""","""","""","""","""","""","""","""","""","""","""","""","2021-08-09 16:15:56",94.9.82.158,"Mozilla/5.0 (Windows NT 10.0; Win64; x64) AppleWebKit/537.36 (KHTML, like Gecko) Chrome/92.0.4515.131 Safari/537.36",WebKit,Chrome,92.0.4515.131,Windows,10.0,5f461dd6c139dd6b46c7596cbd57cd79
185,1,"""","""","""","""","""",sampler,193,140080,0.0-6.0-187.0,"""","""","""","""","""","""","""","""","""","""","""","""","2021-08-09 16:15:56",94.9.82.158,"Mozilla/5.0 (Windows NT 10.0; Win64; x64) AppleWebKit/537.36 (KHTML, like Gecko) Chrome/92.0.4515.131 Safari/537.36",WebKit,Chrome,92.0.4515.131,Windows,10.0,5f461dd6c139dd6b46c7596cbd57cd79
185,1,"""","""","""","""","""",sampler,194,140080,0.0-6.0-188.0,"""","""","""","""","""","""","""","""","""","""","""","""","2021-08-09 16:15:56",94.9.82.158,"Mozilla/5.0 (Windows NT 10.0; Win64; x64) AppleWebKit/537.36 (KHTML, like Gecko) Chrome/92.0.4515.131 Safari/537.36",WebKit,Chrome,92.0.4515.131,Windows,10.0,5f461dd6c139dd6b46c7596cbd57cd79
185,1,"""","""","""","""","""",sampler,195,140080,0.0-6.0-189.0,"""","""","""","""","""","""","""","""","""","""","""","""","2021-08-09 16:15:56",94.9.82.158,"Mozilla/5.0 (Windows NT 10.0; Win64; x64) AppleWebKit/537.36 (KHTML, like Gecko) Chrome/92.0.4515.131 Safari/537.36",WebKit,Chrome,92.0.4515.131,Windows,10.0,5f461dd6c139dd6b46c7596cbd57cd79
185,1,"""","""","""","""","""",sampler,196,140080,0.0-6.0-190.0,"""","""","""","""","""","""","""","""","""","""","""","""","2021-08-09 16:15:56",94.9.82.158,"Mozilla/5.0 (Windows NT 10.0; Win64; x64) AppleWebKit/537.36 (KHTML, like Gecko) Chrome/92.0.4515.131 Safari/537.36",WebKit,Chrome,92.0.4515.131,Windows,10.0,5f461dd6c139dd6b46c7596cbd57cd79
185,1,"""","""","""","""","""",sampler,197,140080,0.0-6.0-191.0,"""","""","""","""","""","""","""","""","""","""","""","""","2021-08-09 16:15:56",94.9.82.158,"Mozilla/5.0 (Windows NT 10.0; Win64; x64) AppleWebKit/537.36 (KHTML, like Gecko) Chrome/92.0.4515.131 Safari/537.36",WebKit,Chrome,92.0.4515.131,Windows,10.0,5f461dd6c139dd6b46c7596cbd57cd79
185,1,"""","""","""","""","""",sampler,198,140081,0.0-6.0-192.0,"""","""","""","""","""","""","""","""","""","""","""","""","2021-08-09 16:15:56",94.9.82.158,"Mozilla/5.0 (Windows NT 10.0; Win64; x64) AppleWebKit/537.36 (KHTML, like Gecko) Chrome/92.0.4515.131 Safari/537.36",WebKit,Chrome,92.0.4515.131,Windows,10.0,5f461dd6c139dd6b46c7596cbd57cd79
185,1,"""","""","""","""","""",sampler,199,140081,0.0-6.0-193.0,"""","""","""","""","""","""","""","""","""","""","""","""","2021-08-09 16:15:56",94.9.82.158,"Mozilla/5.0 (Windows NT 10.0; Win64; x64) AppleWebKit/537.36 (KHTML, like Gecko) Chrome/92.0.4515.131 Safari/537.36",WebKit,Chrome,92.0.4515.131,Windows,10.0,5f461dd6c139dd6b46c7596cbd57cd79
185,1,"""","""","""","""","""",sampler,200,140081,0.0-6.0-194.0,"""","""","""","""","""","""","""","""","""","""","""","""","2021-08-09 16:15:56",94.9.82.158,"Mozilla/5.0 (Windows NT 10.0; Win64; x64) AppleWebKit/537.36 (KHTML, like Gecko) Chrome/92.0.4515.131 Safari/537.36",WebKit,Chrome,92.0.4515.131,Windows,10.0,5f461dd6c139dd6b46c7596cbd57cd79
185,1,"""","""","""","""","""",sampler,201,140081,0.0-6.0-195.0,"""","""","""","""","""","""","""","""","""","""","""","""","2021-08-09 16:15:56",94.9.82.158,"Mozilla/5.0 (Windows NT 10.0; Win64; x64) AppleWebKit/537.36 (KHTML, like Gecko) Chrome/92.0.4515.131 Safari/537.36",WebKit,Chrome,92.0.4515.131,Windows,10.0,5f461dd6c139dd6b46c7596cbd57cd79
185,1,"""","""","""","""","""",sampler,202,140081,0.0-6.0-196.0,"""","""","""","""","""","""","""","""","""","""","""","""","2021-08-09 16:15:56",94.9.82.158,"Mozilla/5.0 (Windows NT 10.0; Win64; x64) AppleWebKit/537.36 (KHTML, like Gecko) Chrome/92.0.4515.131 Safari/537.36",WebKit,Chrome,92.0.4515.131,Windows,10.0,5f461dd6c139dd6b46c7596cbd57cd79
185,1,"""","""","""","""","""",sampler,203,140082,0.0-6.0-197.0,"""","""","""","""","""","""","""","""","""","""","""","""","2021-08-09 16:15:56",94.9.82.158,"Mozilla/5.0 (Windows NT 10.0; Win64; x64) AppleWebKit/537.36 (KHTML, like Gecko) Chrome/92.0.4515.131 Safari/537.36",WebKit,Chrome,92.0.4515.131,Windows,10.0,5f461dd6c139dd6b46c7596cbd57cd79
185,1,"""","""","""","""","""",sampler,204,140082,0.0-6.0-198.0,"""","""","""","""","""","""","""","""","""","""","""","""","2021-08-09 16:15:56",94.9.82.158,"Mozilla/5.0 (Windows NT 10.0; Win64; x64) AppleWebKit/537.36 (KHTML, like Gecko) Chrome/92.0.4515.131 Safari/537.36",WebKit,Chrome,92.0.4515.131,Windows,10.0,5f461dd6c139dd6b46c7596cbd57cd79
185,1,"""","""","""","""","""",sampler,205,140082,0.0-6.0-199.0,"""","""","""","""","""","""","""","""","""","""","""","""","2021-08-09 16:15:56",94.9.82.158,"Mozilla/5.0 (Windows NT 10.0; Win64; x64) AppleWebKit/537.36 (KHTML, like Gecko) Chrome/92.0.4515.131 Safari/537.36",WebKit,Chrome,92.0.4515.131,Windows,10.0,5f461dd6c139dd6b46c7596cbd57cd79
185,1,"""","""","""","""","""",sampler,206,140082,0.0-6.0-200.0,"""","""","""","""","""","""","""","""","""","""","""","""","2021-08-09 16:15:56",94.9.82.158,"Mozilla/5.0 (Windows NT 10.0; Win64; x64) AppleWebKit/537.36 (KHTML, like Gecko) Chrome/92.0.4515.131 Safari/537.36",WebKit,Chrome,92.0.4515.131,Windows,10.0,5f461dd6c139dd6b46c7596cbd57cd79
185,1,"""","""","""","""","""",sampler,207,140083,0.0-6.0-201.0,"""","""","""","""","""","""","""","""","""","""","""","""","2021-08-09 16:15:56",94.9.82.158,"Mozilla/5.0 (Windows NT 10.0; Win64; x64) AppleWebKit/537.36 (KHTML, like Gecko) Chrome/92.0.4515.131 Safari/537.36",WebKit,Chrome,92.0.4515.131,Windows,10.0,5f461dd6c139dd6b46c7596cbd57cd79
185,1,"""","""","""","""","""",sampler,208,140083,0.0-6.0-202.0,"""","""","""","""","""","""","""","""","""","""","""","""","2021-08-09 16:15:56",94.9.82.158,"Mozilla/5.0 (Windows NT 10.0; Win64; x64) AppleWebKit/537.36 (KHTML, like Gecko) Chrome/92.0.4515.131 Safari/537.36",WebKit,Chrome,92.0.4515.131,Windows,10.0,5f461dd6c139dd6b46c7596cbd57cd79
185,1,"""","""","""","""","""",sampler,209,140083,0.0-6.0-203.0,"""","""","""","""","""","""","""","""","""","""","""","""","2021-08-09 16:15:56",94.9.82.158,"Mozilla/5.0 (Windows NT 10.0; Win64; x64) AppleWebKit/537.36 (KHTML, like Gecko) Chrome/92.0.4515.131 Safari/537.36",WebKit,Chrome,92.0.4515.131,Windows,10.0,5f461dd6c139dd6b46c7596cbd57cd79
185,1,"""","""","""","""","""",sampler,210,140083,0.0-6.0-204.0,"""","""","""","""","""","""","""","""","""","""","""","""","2021-08-09 16:15:56",94.9.82.158,"Mozilla/5.0 (Windows NT 10.0; Win64; x64) AppleWebKit/537.36 (KHTML, like Gecko) Chrome/92.0.4515.131 Safari/537.36",WebKit,Chrome,92.0.4515.131,Windows,10.0,5f461dd6c139dd6b46c7596cbd57cd79
185,1,"""","""","""","""","""",sampler,211,140083,0.0-6.0-205.0,"""","""","""","""","""","""","""","""","""","""","""","""","2021-08-09 16:15:56",94.9.82.158,"Mozilla/5.0 (Windows NT 10.0; Win64; x64) AppleWebKit/537.36 (KHTML, like Gecko) Chrome/92.0.4515.131 Safari/537.36",WebKit,Chrome,92.0.4515.131,Windows,10.0,5f461dd6c139dd6b46c7596cbd57cd79
185,1,"""","""","""","""","""",sampler,212,140083,0.0-6.0-206.0,"""","""","""","""","""","""","""","""","""","""","""","""","2021-08-09 16:15:56",94.9.82.158,"Mozilla/5.0 (Windows NT 10.0; Win64; x64) AppleWebKit/537.36 (KHTML, like Gecko) Chrome/92.0.4515.131 Safari/537.36",WebKit,Chrome,92.0.4515.131,Windows,10.0,5f461dd6c139dd6b46c7596cbd57cd79
185,1,"""","""","""","""","""",sampler,213,140083,0.0-6.0-207.0,"""","""","""","""","""","""","""","""","""","""","""","""","2021-08-09 16:15:56",94.9.82.158,"Mozilla/5.0 (Windows NT 10.0; Win64; x64) AppleWebKit/537.36 (KHTML, like Gecko) Chrome/92.0.4515.131 Safari/537.36",WebKit,Chrome,92.0.4515.131,Windows,10.0,5f461dd6c139dd6b46c7596cbd57cd79
185,1,"""","""","""","""","""",sampler,214,140083,0.0-6.0-208.0,"""","""","""","""","""","""","""","""","""","""","""","""","2021-08-09 16:15:56",94.9.82.158,"Mozilla/5.0 (Windows NT 10.0; Win64; x64) AppleWebKit/537.36 (KHTML, like Gecko) Chrome/92.0.4515.131 Safari/537.36",WebKit,Chrome,92.0.4515.131,Windows,10.0,5f461dd6c139dd6b46c7596cbd57cd79
185,1,"""","""","""","""","""",sampler,215,140083,0.0-6.0-209.0,"""","""","""","""","""","""","""","""","""","""","""","""","2021-08-09 16:15:56",94.9.82.158,"Mozilla/5.0 (Windows NT 10.0; Win64; x64) AppleWebKit/537.36 (KHTML, like Gecko) Chrome/92.0.4515.131 Safari/537.36",WebKit,Chrome,92.0.4515.131,Windows,10.0,5f461dd6c139dd6b46c7596cbd57cd79
185,1,"""","""","""","""","""",sampler,216,140083,0.0-6.0-210.0,"""","""","""","""","""","""","""","""","""","""","""","""","2021-08-09 16:15:56",94.9.82.158,"Mozilla/5.0 (Windows NT 10.0; Win64; x64) AppleWebKit/537.36 (KHTML, like Gecko) Chrome/92.0.4515.131 Safari/537.36",WebKit,Chrome,92.0.4515.131,Windows,10.0,5f461dd6c139dd6b46c7596cbd57cd79
185,1,"""","""","""","""","""",sampler,217,140083,0.0-6.0-211.0,"""","""","""","""","""","""","""","""","""","""","""","""","2021-08-09 16:15:56",94.9.82.158,"Mozilla/5.0 (Windows NT 10.0; Win64; x64) AppleWebKit/537.36 (KHTML, like Gecko) Chrome/92.0.4515.131 Safari/537.36",WebKit,Chrome,92.0.4515.131,Windows,10.0,5f461dd6c139dd6b46c7596cbd57cd79
185,1,"""","""","""","""","""",sampler,218,140084,0.0-6.0-212.0,"""","""","""","""","""","""","""","""","""","""","""","""","2021-08-09 16:15:56",94.9.82.158,"Mozilla/5.0 (Windows NT 10.0; Win64; x64) AppleWebKit/537.36 (KHTML, like Gecko) Chrome/92.0.4515.131 Safari/537.36",WebKit,Chrome,92.0.4515.131,Windows,10.0,5f461dd6c139dd6b46c7596cbd57cd79
185,1,"""","""","""","""","""",sampler,219,140084,0.0-6.0-213.0,"""","""","""","""","""","""","""","""","""","""","""","""","2021-08-09 16:15:56",94.9.82.158,"Mozilla/5.0 (Windows NT 10.0; Win64; x64) AppleWebKit/537.36 (KHTML, like Gecko) Chrome/92.0.4515.131 Safari/537.36",WebKit,Chrome,92.0.4515.131,Windows,10.0,5f461dd6c139dd6b46c7596cbd57cd79
185,1,"""","""","""","""","""",sampler,220,140084,0.0-6.0-214.0,"""","""","""","""","""","""","""","""","""","""","""","""","2021-08-09 16:15:56",94.9.82.158,"Mozilla/5.0 (Windows NT 10.0; Win64; x64) AppleWebKit/537.36 (KHTML, like Gecko) Chrome/92.0.4515.131 Safari/537.36",WebKit,Chrome,92.0.4515.131,Windows,10.0,5f461dd6c139dd6b46c7596cbd57cd79
185,1,"""","""","""","""","""",sampler,221,140084,0.0-6.0-215.0,"""","""","""","""","""","""","""","""","""","""","""","""","2021-08-09 16:15:56",94.9.82.158,"Mozilla/5.0 (Windows NT 10.0; Win64; x64) AppleWebKit/537.36 (KHTML, like Gecko) Chrome/92.0.4515.131 Safari/537.36",WebKit,Chrome,92.0.4515.131,Windows,10.0,5f461dd6c139dd6b46c7596cbd57cd79
185,1,"""","""","""","""","""",sampler,222,140084,0.0-6.0-216.0,"""","""","""","""","""","""","""","""","""","""","""","""","2021-08-09 16:15:56",94.9.82.158,"Mozilla/5.0 (Windows NT 10.0; Win64; x64) AppleWebKit/537.36 (KHTML, like Gecko) Chrome/92.0.4515.131 Safari/537.36",WebKit,Chrome,92.0.4515.131,Windows,10.0,5f461dd6c139dd6b46c7596cbd57cd79
185,1,"""","""","""","""","""",sampler,223,140084,0.0-6.0-217.0,"""","""","""","""","""","""","""","""","""","""","""","""","2021-08-09 16:15:56",94.9.82.158,"Mozilla/5.0 (Windows NT 10.0; Win64; x64) AppleWebKit/537.36 (KHTML, like Gecko) Chrome/92.0.4515.131 Safari/537.36",WebKit,Chrome,92.0.4515.131,Windows,10.0,5f461dd6c139dd6b46c7596cbd57cd79
185,1,"""","""","""","""","""",sampler,224,140084,0.0-6.0-218.0,"""","""","""","""","""","""","""","""","""","""","""","""","2021-08-09 16:15:56",94.9.82.158,"Mozilla/5.0 (Windows NT 10.0; Win64; x64) AppleWebKit/537.36 (KHTML, like Gecko) Chrome/92.0.4515.131 Safari/537.36",WebKit,Chrome,92.0.4515.131,Windows,10.0,5f461dd6c139dd6b46c7596cbd57cd79
185,1,"""","""","""","""","""",sampler,225,140084,0.0-6.0-219.0,"""","""","""","""","""","""","""","""","""","""","""","""","2021-08-09 16:15:56",94.9.82.158,"Mozilla/5.0 (Windows NT 10.0; Win64; x64) AppleWebKit/537.36 (KHTML, like Gecko) Chrome/92.0.4515.131 Safari/537.36",WebKit,Chrome,92.0.4515.131,Windows,10.0,5f461dd6c139dd6b46c7596cbd57cd79
185,1,"""","""","""","""","""",sampler,226,140084,0.0-6.0-220.0,"""","""","""","""","""","""","""","""","""","""","""","""","2021-08-09 16:15:56",94.9.82.158,"Mozilla/5.0 (Windows NT 10.0; Win64; x64) AppleWebKit/537.36 (KHTML, like Gecko) Chrome/92.0.4515.131 Safari/537.36",WebKit,Chrome,92.0.4515.131,Windows,10.0,5f461dd6c139dd6b46c7596cbd57cd79
185,1,"""","""","""","""","""",sampler,227,140084,0.0-6.0-221.0,"""","""","""","""","""","""","""","""","""","""","""","""","2021-08-09 16:15:56",94.9.82.158,"Mozilla/5.0 (Windows NT 10.0; Win64; x64) AppleWebKit/537.36 (KHTML, like Gecko) Chrome/92.0.4515.131 Safari/537.36",WebKit,Chrome,92.0.4515.131,Windows,10.0,5f461dd6c139dd6b46c7596cbd57cd79
185,1,"""","""","""","""","""",sampler,228,140085,0.0-6.0-222.0,"""","""","""","""","""","""","""","""","""","""","""","""","2021-08-09 16:15:56",94.9.82.158,"Mozilla/5.0 (Windows NT 10.0; Win64; x64) AppleWebKit/537.36 (KHTML, like Gecko) Chrome/92.0.4515.131 Safari/537.36",WebKit,Chrome,92.0.4515.131,Windows,10.0,5f461dd6c139dd6b46c7596cbd57cd79
185,1,"""","""","""","""","""",sampler,229,140085,0.0-6.0-223.0,"""","""","""","""","""","""","""","""","""","""","""","""","2021-08-09 16:15:56",94.9.82.158,"Mozilla/5.0 (Windows NT 10.0; Win64; x64) AppleWebKit/537.36 (KHTML, like Gecko) Chrome/92.0.4515.131 Safari/537.36",WebKit,Chrome,92.0.4515.131,Windows,10.0,5f461dd6c139dd6b46c7596cbd57cd79
185,1,"""","""","""","""","""",sampler,230,140085,0.0-6.0-224.0,"""","""","""","""","""","""","""","""","""","""","""","""","2021-08-09 16:15:56",94.9.82.158,"Mozilla/5.0 (Windows NT 10.0; Win64; x64) AppleWebKit/537.36 (KHTML, like Gecko) Chrome/92.0.4515.131 Safari/537.36",WebKit,Chrome,92.0.4515.131,Windows,10.0,5f461dd6c139dd6b46c7596cbd57cd79
185,1,"""","""","""","""","""",sampler,231,140085,0.0-6.0-225.0,"""","""","""","""","""","""","""","""","""","""","""","""","2021-08-09 16:15:56",94.9.82.158,"Mozilla/5.0 (Windows NT 10.0; Win64; x64) AppleWebKit/537.36 (KHTML, like Gecko) Chrome/92.0.4515.131 Safari/537.36",WebKit,Chrome,92.0.4515.131,Windows,10.0,5f461dd6c139dd6b46c7596cbd57cd79
185,1,"""","""","""","""","""",sampler,232,140085,0.0-6.0-226.0,"""","""","""","""","""","""","""","""","""","""","""","""","2021-08-09 16:15:56",94.9.82.158,"Mozilla/5.0 (Windows NT 10.0; Win64; x64) AppleWebKit/537.36 (KHTML, like Gecko) Chrome/92.0.4515.131 Safari/537.36",WebKit,Chrome,92.0.4515.131,Windows,10.0,5f461dd6c139dd6b46c7596cbd57cd79
185,1,"""","""","""","""","""",sampler,233,140085,0.0-6.0-227.0,"""","""","""","""","""","""","""","""","""","""","""","""","2021-08-09 16:15:56",94.9.82.158,"Mozilla/5.0 (Windows NT 10.0; Win64; x64) AppleWebKit/537.36 (KHTML, like Gecko) Chrome/92.0.4515.131 Safari/537.36",WebKit,Chrome,92.0.4515.131,Windows,10.0,5f461dd6c139dd6b46c7596cbd57cd79
185,1,"""","""","""","""","""",sampler,234,140085,0.0-6.0-228.0,"""","""","""","""","""","""","""","""","""","""","""","""","2021-08-09 16:15:56",94.9.82.158,"Mozilla/5.0 (Windows NT 10.0; Win64; x64) AppleWebKit/537.36 (KHTML, like Gecko) Chrome/92.0.4515.131 Safari/537.36",WebKit,Chrome,92.0.4515.131,Windows,10.0,5f461dd6c139dd6b46c7596cbd57cd79
185,1,"""","""","""","""","""",sampler,235,140085,0.0-6.0-229.0,"""","""","""","""","""","""","""","""","""","""","""","""","2021-08-09 16:15:56",94.9.82.158,"Mozilla/5.0 (Windows NT 10.0; Win64; x64) AppleWebKit/537.36 (KHTML, like Gecko) Chrome/92.0.4515.131 Safari/537.36",WebKit,Chrome,92.0.4515.131,Windows,10.0,5f461dd6c139dd6b46c7596cbd57cd79
185,1,"""","""","""","""","""",sampler,236,140085,0.0-6.0-230.0,"""","""","""","""","""","""","""","""","""","""","""","""","2021-08-09 16:15:56",94.9.82.158,"Mozilla/5.0 (Windows NT 10.0; Win64; x64) AppleWebKit/537.36 (KHTML, like Gecko) Chrome/92.0.4515.131 Safari/537.36",WebKit,Chrome,92.0.4515.131,Windows,10.0,5f461dd6c139dd6b46c7596cbd57cd79
185,1,"""","""","""","""","""",sampler,237,140085,0.0-6.0-231.0,"""","""","""","""","""","""","""","""","""","""","""","""","2021-08-09 16:15:56",94.9.82.158,"Mozilla/5.0 (Windows NT 10.0; Win64; x64) AppleWebKit/537.36 (KHTML, like Gecko) Chrome/92.0.4515.131 Safari/537.36",WebKit,Chrome,92.0.4515.131,Windows,10.0,5f461dd6c139dd6b46c7596cbd57cd79
185,1,"""","""","""","""","""",sampler,238,140085,0.0-6.0-232.0,"""","""","""","""","""","""","""","""","""","""","""","""","2021-08-09 16:15:56",94.9.82.158,"Mozilla/5.0 (Windows NT 10.0; Win64; x64) AppleWebKit/537.36 (KHTML, like Gecko) Chrome/92.0.4515.131 Safari/537.36",WebKit,Chrome,92.0.4515.131,Windows,10.0,5f461dd6c139dd6b46c7596cbd57cd79
185,1,"""","""","""","""","""",sampler,239,140086,0.0-6.0-233.0,"""","""","""","""","""","""","""","""","""","""","""","""","2021-08-09 16:15:56",94.9.82.158,"Mozilla/5.0 (Windows NT 10.0; Win64; x64) AppleWebKit/537.36 (KHTML, like Gecko) Chrome/92.0.4515.131 Safari/537.36",WebKit,Chrome,92.0.4515.131,Windows,10.0,5f461dd6c139dd6b46c7596cbd57cd79
185,1,"""","""","""","""","""",sampler,240,140086,0.0-6.0-234.0,"""","""","""","""","""","""","""","""","""","""","""","""","2021-08-09 16:15:56",94.9.82.158,"Mozilla/5.0 (Windows NT 10.0; Win64; x64) AppleWebKit/537.36 (KHTML, like Gecko) Chrome/92.0.4515.131 Safari/537.36",WebKit,Chrome,92.0.4515.131,Windows,10.0,5f461dd6c139dd6b46c7596cbd57cd79
185,1,"""","""","""","""","""",sampler,241,140086,0.0-6.0-235.0,"""","""","""","""","""","""","""","""","""","""","""","""","2021-08-09 16:15:56",94.9.82.158,"Mozilla/5.0 (Windows NT 10.0; Win64; x64) AppleWebKit/537.36 (KHTML, like Gecko) Chrome/92.0.4515.131 Safari/537.36",WebKit,Chrome,92.0.4515.131,Windows,10.0,5f461dd6c139dd6b46c7596cbd57cd79
185,1,"""","""","""","""","""",sampler,242,140086,0.0-6.0-236.0,"""","""","""","""","""","""","""","""","""","""","""","""","2021-08-09 16:15:56",94.9.82.158,"Mozilla/5.0 (Windows NT 10.0; Win64; x64) AppleWebKit/537.36 (KHTML, like Gecko) Chrome/92.0.4515.131 Safari/537.36",WebKit,Chrome,92.0.4515.131,Windows,10.0,5f461dd6c139dd6b46c7596cbd57cd79
185,1,"""","""","""","""","""",sampler,243,140086,0.0-6.0-237.0,"""","""","""","""","""","""","""","""","""","""","""","""","2021-08-09 16:15:56",94.9.82.158,"Mozilla/5.0 (Windows NT 10.0; Win64; x64) AppleWebKit/537.36 (KHTML, like Gecko) Chrome/92.0.4515.131 Safari/537.36",WebKit,Chrome,92.0.4515.131,Windows,10.0,5f461dd6c139dd6b46c7596cbd57cd79
185,1,"""","""","""","""","""",sampler,244,140086,0.0-6.0-238.0,"""","""","""","""","""","""","""","""","""","""","""","""","2021-08-09 16:15:56",94.9.82.158,"Mozilla/5.0 (Windows NT 10.0; Win64; x64) AppleWebKit/537.36 (KHTML, like Gecko) Chrome/92.0.4515.131 Safari/537.36",WebKit,Chrome,92.0.4515.131,Windows,10.0,5f461dd6c139dd6b46c7596cbd57cd79
185,1,"""","""","""","""","""",sampler,245,140086,0.0-6.0-239.0,"""","""","""","""","""","""","""","""","""","""","""","""","2021-08-09 16:15:56",94.9.82.158,"Mozilla/5.0 (Windows NT 10.0; Win64; x64) AppleWebKit/537.36 (KHTML, like Gecko) Chrome/92.0.4515.131 Safari/537.36",WebKit,Chrome,92.0.4515.131,Windows,10.0,5f461dd6c139dd6b46c7596cbd57cd79
185,1,"""","""","""","""","""",sampler,246,140086,0.0-6.0-240.0,"""","""","""","""","""","""","""","""","""","""","""","""","2021-08-09 16:15:56",94.9.82.158,"Mozilla/5.0 (Windows NT 10.0; Win64; x64) AppleWebKit/537.36 (KHTML, like Gecko) Chrome/92.0.4515.131 Safari/537.36",WebKit,Chrome,92.0.4515.131,Windows,10.0,5f461dd6c139dd6b46c7596cbd57cd79
185,1,"""","""","""","""","""",sampler,247,140086,0.0-6.0-241.0,"""","""","""","""","""","""","""","""","""","""","""","""","2021-08-09 16:15:56",94.9.82.158,"Mozilla/5.0 (Windows NT 10.0; Win64; x64) AppleWebKit/537.36 (KHTML, like Gecko) Chrome/92.0.4515.131 Safari/537.36",WebKit,Chrome,92.0.4515.131,Windows,10.0,5f461dd6c139dd6b46c7596cbd57cd79
185,1,"""","""","""","""","""",sampler,248,140087,0.0-6.0-242.0,"""","""","""","""","""","""","""","""","""","""","""","""","2021-08-09 16:15:56",94.9.82.158,"Mozilla/5.0 (Windows NT 10.0; Win64; x64) AppleWebKit/537.36 (KHTML, like Gecko) Chrome/92.0.4515.131 Safari/537.36",WebKit,Chrome,92.0.4515.131,Windows,10.0,5f461dd6c139dd6b46c7596cbd57cd79
185,1,"""","""","""","""","""",sampler,249,140087,0.0-6.0-243.0,"""","""","""","""","""","""","""","""","""","""","""","""","2021-08-09 16:15:56",94.9.82.158,"Mozilla/5.0 (Windows NT 10.0; Win64; x64) AppleWebKit/537.36 (KHTML, like Gecko) Chrome/92.0.4515.131 Safari/537.36",WebKit,Chrome,92.0.4515.131,Windows,10.0,5f461dd6c139dd6b46c7596cbd57cd79
185,1,"""","""","""","""","""",sampler,250,140087,0.0-6.0-244.0,"""","""","""","""","""","""","""","""","""","""","""","""","2021-08-09 16:15:56",94.9.82.158,"Mozilla/5.0 (Windows NT 10.0; Win64; x64) AppleWebKit/537.36 (KHTML, like Gecko) Chrome/92.0.4515.131 Safari/537.36",WebKit,Chrome,92.0.4515.131,Windows,10.0,5f461dd6c139dd6b46c7596cbd57cd79
185,1,"""","""","""","""","""",sampler,251,140087,0.0-6.0-245.0,"""","""","""","""","""","""","""","""","""","""","""","""","2021-08-09 16:15:56",94.9.82.158,"Mozilla/5.0 (Windows NT 10.0; Win64; x64) AppleWebKit/537.36 (KHTML, like Gecko) Chrome/92.0.4515.131 Safari/537.36",WebKit,Chrome,92.0.4515.131,Windows,10.0,5f461dd6c139dd6b46c7596cbd57cd79
185,1,"""","""","""","""","""",sampler,252,140087,0.0-6.0-246.0,"""","""","""","""","""","""","""","""","""","""","""","""","2021-08-09 16:15:56",94.9.82.158,"Mozilla/5.0 (Windows NT 10.0; Win64; x64) AppleWebKit/537.36 (KHTML, like Gecko) Chrome/92.0.4515.131 Safari/537.36",WebKit,Chrome,92.0.4515.131,Windows,10.0,5f461dd6c139dd6b46c7596cbd57cd79
185,1,"""","""","""","""","""",sampler,253,140087,0.0-6.0-247.0,"""","""","""","""","""","""","""","""","""","""","""","""","2021-08-09 16:15:56",94.9.82.158,"Mozilla/5.0 (Windows NT 10.0; Win64; x64) AppleWebKit/537.36 (KHTML, like Gecko) Chrome/92.0.4515.131 Safari/537.36",WebKit,Chrome,92.0.4515.131,Windows,10.0,5f461dd6c139dd6b46c7596cbd57cd79
185,1,"""","""","""","""","""",sampler,254,140087,0.0-6.0-248.0,"""","""","""","""","""","""","""","""","""","""","""","""","2021-08-09 16:15:56",94.9.82.158,"Mozilla/5.0 (Windows NT 10.0; Win64; x64) AppleWebKit/537.36 (KHTML, like Gecko) Chrome/92.0.4515.131 Safari/537.36",WebKit,Chrome,92.0.4515.131,Windows,10.0,5f461dd6c139dd6b46c7596cbd57cd79
185,1,"""","""","""","""","""",sampler,255,140087,0.0-6.0-249.0,"""","""","""","""","""","""","""","""","""","""","""","""","2021-08-09 16:15:56",94.9.82.158,"Mozilla/5.0 (Windows NT 10.0; Win64; x64) AppleWebKit/537.36 (KHTML, like Gecko) Chrome/92.0.4515.131 Safari/537.36",WebKit,Chrome,92.0.4515.131,Windows,10.0,5f461dd6c139dd6b46c7596cbd57cd79
185,1,"""","""","""","""","""",sampler,256,140087,0.0-6.0-250.0,"""","""","""","""","""","""","""","""","""","""","""","""","2021-08-09 16:15:56",94.9.82.158,"Mozilla/5.0 (Windows NT 10.0; Win64; x64) AppleWebKit/537.36 (KHTML, like Gecko) Chrome/92.0.4515.131 Safari/537.36",WebKit,Chrome,92.0.4515.131,Windows,10.0,5f461dd6c139dd6b46c7596cbd57cd79
185,1,"""","""","""","""","""",sampler,257,140087,0.0-6.0-251.0,"""","""","""","""","""","""","""","""","""","""","""","""","2021-08-09 16:15:56",94.9.82.158,"Mozilla/5.0 (Windows NT 10.0; Win64; x64) AppleWebKit/537.36 (KHTML, like Gecko) Chrome/92.0.4515.131 Safari/537.36",WebKit,Chrome,92.0.4515.131,Windows,10.0,5f461dd6c139dd6b46c7596cbd57cd79
185,1,"""","""","""","""","""",sampler,258,140087,0.0-6.0-252.0,"""","""","""","""","""","""","""","""","""","""","""","""","2021-08-09 16:15:56",94.9.82.158,"Mozilla/5.0 (Windows NT 10.0; Win64; x64) AppleWebKit/537.36 (KHTML, like Gecko) Chrome/92.0.4515.131 Safari/537.36",WebKit,Chrome,92.0.4515.131,Windows,10.0,5f461dd6c139dd6b46c7596cbd57cd79
185,1,"""","""","""","""","""",sampler,259,140088,0.0-6.0-253.0,"""","""","""","""","""","""","""","""","""","""","""","""","2021-08-09 16:15:56",94.9.82.158,"Mozilla/5.0 (Windows NT 10.0; Win64; x64) AppleWebKit/537.36 (KHTML, like Gecko) Chrome/92.0.4515.131 Safari/537.36",WebKit,Chrome,92.0.4515.131,Windows,10.0,5f461dd6c139dd6b46c7596cbd57cd79
185,1,"""","""","""","""","""",sampler,260,140088,0.0-6.0-254.0,"""","""","""","""","""","""","""","""","""","""","""","""","2021-08-09 16:15:56",94.9.82.158,"Mozilla/5.0 (Windows NT 10.0; Win64; x64) AppleWebKit/537.36 (KHTML, like Gecko) Chrome/92.0.4515.131 Safari/537.36",WebKit,Chrome,92.0.4515.131,Windows,10.0,5f461dd6c139dd6b46c7596cbd57cd79
185,1,"""","""","""","""","""",sampler,261,140088,0.0-6.0-255.0,"""","""","""","""","""","""","""","""","""","""","""","""","2021-08-09 16:15:56",94.9.82.158,"Mozilla/5.0 (Windows NT 10.0; Win64; x64) AppleWebKit/537.36 (KHTML, like Gecko) Chrome/92.0.4515.131 Safari/537.36",WebKit,Chrome,92.0.4515.131,Windows,10.0,5f461dd6c139dd6b46c7596cbd57cd79
185,1,"""","""","""","""","""",sampler,262,140088,0.0-6.0-256.0,"""","""","""","""","""","""","""","""","""","""","""","""","2021-08-09 16:15:56",94.9.82.158,"Mozilla/5.0 (Windows NT 10.0; Win64; x64) AppleWebKit/537.36 (KHTML, like Gecko) Chrome/92.0.4515.131 Safari/537.36",WebKit,Chrome,92.0.4515.131,Windows,10.0,5f461dd6c139dd6b46c7596cbd57cd79
185,1,"""","""","""","""","""",sampler,263,140088,0.0-6.0-257.0,"""","""","""","""","""","""","""","""","""","""","""","""","2021-08-09 16:15:56",94.9.82.158,"Mozilla/5.0 (Windows NT 10.0; Win64; x64) AppleWebKit/537.36 (KHTML, like Gecko) Chrome/92.0.4515.131 Safari/537.36",WebKit,Chrome,92.0.4515.131,Windows,10.0,5f461dd6c139dd6b46c7596cbd57cd79
185,1,"""","""","""","""","""",sampler,264,140088,0.0-6.0-258.0,"""","""","""","""","""","""","""","""","""","""","""","""","2021-08-09 16:15:56",94.9.82.158,"Mozilla/5.0 (Windows NT 10.0; Win64; x64) AppleWebKit/537.36 (KHTML, like Gecko) Chrome/92.0.4515.131 Safari/537.36",WebKit,Chrome,92.0.4515.131,Windows,10.0,5f461dd6c139dd6b46c7596cbd57cd79
185,1,"""","""","""","""","""",sampler,265,140088,0.0-6.0-259.0,"""","""","""","""","""","""","""","""","""","""","""","""","2021-08-09 16:15:56",94.9.82.158,"Mozilla/5.0 (Windows NT 10.0; Win64; x64) AppleWebKit/537.36 (KHTML, like Gecko) Chrome/92.0.4515.131 Safari/537.36",WebKit,Chrome,92.0.4515.131,Windows,10.0,5f461dd6c139dd6b46c7596cbd57cd79
185,1,"""","""","""","""","""",sampler,266,140088,0.0-6.0-260.0,"""","""","""","""","""","""","""","""","""","""","""","""","2021-08-09 16:15:56",94.9.82.158,"Mozilla/5.0 (Windows NT 10.0; Win64; x64) AppleWebKit/537.36 (KHTML, like Gecko) Chrome/92.0.4515.131 Safari/537.36",WebKit,Chrome,92.0.4515.131,Windows,10.0,5f461dd6c139dd6b46c7596cbd57cd79
185,1,"""","""","""","""","""",sampler,267,140088,0.0-6.0-261.0,"""","""","""","""","""","""","""","""","""","""","""","""","2021-08-09 16:15:56",94.9.82.158,"Mozilla/5.0 (Windows NT 10.0; Win64; x64) AppleWebKit/537.36 (KHTML, like Gecko) Chrome/92.0.4515.131 Safari/537.36",WebKit,Chrome,92.0.4515.131,Windows,10.0,5f461dd6c139dd6b46c7596cbd57cd79
185,1,"""","""","""","""","""",sampler,268,140088,0.0-6.0-262.0,"""","""","""","""","""","""","""","""","""","""","""","""","2021-08-09 16:15:56",94.9.82.158,"Mozilla/5.0 (Windows NT 10.0; Win64; x64) AppleWebKit/537.36 (KHTML, like Gecko) Chrome/92.0.4515.131 Safari/537.36",WebKit,Chrome,92.0.4515.131,Windows,10.0,5f461dd6c139dd6b46c7596cbd57cd79
185,1,"""","""","""","""","""",sampler,269,140089,0.0-6.0-263.0,"""","""","""","""","""","""","""","""","""","""","""","""","2021-08-09 16:15:56",94.9.82.158,"Mozilla/5.0 (Windows NT 10.0; Win64; x64) AppleWebKit/537.36 (KHTML, like Gecko) Chrome/92.0.4515.131 Safari/537.36",WebKit,Chrome,92.0.4515.131,Windows,10.0,5f461dd6c139dd6b46c7596cbd57cd79
185,1,"""","""","""","""","""",sampler,270,140089,0.0-6.0-264.0,"""","""","""","""","""","""","""","""","""","""","""","""","2021-08-09 16:15:56",94.9.82.158,"Mozilla/5.0 (Windows NT 10.0; Win64; x64) AppleWebKit/537.36 (KHTML, like Gecko) Chrome/92.0.4515.131 Safari/537.36",WebKit,Chrome,92.0.4515.131,Windows,10.0,5f461dd6c139dd6b46c7596cbd57cd79
185,1,"""","""","""","""","""",sampler,271,140089,0.0-6.0-265.0,"""","""","""","""","""","""","""","""","""","""","""","""","2021-08-09 16:15:56",94.9.82.158,"Mozilla/5.0 (Windows NT 10.0; Win64; x64) AppleWebKit/537.36 (KHTML, like Gecko) Chrome/92.0.4515.131 Safari/537.36",WebKit,Chrome,92.0.4515.131,Windows,10.0,5f461dd6c139dd6b46c7596cbd57cd79
185,1,"""","""","""","""","""",sampler,272,140089,0.0-6.0-266.0,"""","""","""","""","""","""","""","""","""","""","""","""","2021-08-09 16:15:56",94.9.82.158,"Mozilla/5.0 (Windows NT 10.0; Win64; x64) AppleWebKit/537.36 (KHTML, like Gecko) Chrome/92.0.4515.131 Safari/537.36",WebKit,Chrome,92.0.4515.131,Windows,10.0,5f461dd6c139dd6b46c7596cbd57cd79
185,1,"""","""","""","""","""",sampler,273,140089,0.0-6.0-267.0,"""","""","""","""","""","""","""","""","""","""","""","""","2021-08-09 16:15:56",94.9.82.158,"Mozilla/5.0 (Windows NT 10.0; Win64; x64) AppleWebKit/537.36 (KHTML, like Gecko) Chrome/92.0.4515.131 Safari/537.36",WebKit,Chrome,92.0.4515.131,Windows,10.0,5f461dd6c139dd6b46c7596cbd57cd79
185,1,"""","""","""","""","""",sampler,274,140089,0.0-6.0-268.0,"""","""","""","""","""","""","""","""","""","""","""","""","2021-08-09 16:15:56",94.9.82.158,"Mozilla/5.0 (Windows NT 10.0; Win64; x64) AppleWebKit/537.36 (KHTML, like Gecko) Chrome/92.0.4515.131 Safari/537.36",WebKit,Chrome,92.0.4515.131,Windows,10.0,5f461dd6c139dd6b46c7596cbd57cd79
185,1,"""","""","""","""","""",sampler,275,140089,0.0-6.0-269.0,"""","""","""","""","""","""","""","""","""","""","""","""","2021-08-09 16:15:56",94.9.82.158,"Mozilla/5.0 (Windows NT 10.0; Win64; x64) AppleWebKit/537.36 (KHTML, like Gecko) Chrome/92.0.4515.131 Safari/537.36",WebKit,Chrome,92.0.4515.131,Windows,10.0,5f461dd6c139dd6b46c7596cbd57cd79
185,1,"""","""","""","""","""",sampler,276,140089,0.0-6.0-270.0,"""","""","""","""","""","""","""","""","""","""","""","""","2021-08-09 16:15:56",94.9.82.158,"Mozilla/5.0 (Windows NT 10.0; Win64; x64) AppleWebKit/537.36 (KHTML, like Gecko) Chrome/92.0.4515.131 Safari/537.36",WebKit,Chrome,92.0.4515.131,Windows,10.0,5f461dd6c139dd6b46c7596cbd57cd79
185,1,"""","""","""","""","""",sampler,277,140089,0.0-6.0-271.0,"""","""","""","""","""","""","""","""","""","""","""","""","2021-08-09 16:15:56",94.9.82.158,"Mozilla/5.0 (Windows NT 10.0; Win64; x64) AppleWebKit/537.36 (KHTML, like Gecko) Chrome/92.0.4515.131 Safari/537.36",WebKit,Chrome,92.0.4515.131,Windows,10.0,5f461dd6c139dd6b46c7596cbd57cd79
185,1,"""","""","""","""","""",sampler,278,140089,0.0-6.0-272.0,"""","""","""","""","""","""","""","""","""","""","""","""","2021-08-09 16:15:56",94.9.82.158,"Mozilla/5.0 (Windows NT 10.0; Win64; x64) AppleWebKit/537.36 (KHTML, like Gecko) Chrome/92.0.4515.131 Safari/537.36",WebKit,Chrome,92.0.4515.131,Windows,10.0,5f461dd6c139dd6b46c7596cbd57cd79
185,1,"""","""","""","""","""",sampler,279,140090,0.0-6.0-273.0,"""","""","""","""","""","""","""","""","""","""","""","""","2021-08-09 16:15:56",94.9.82.158,"Mozilla/5.0 (Windows NT 10.0; Win64; x64) AppleWebKit/537.36 (KHTML, like Gecko) Chrome/92.0.4515.131 Safari/537.36",WebKit,Chrome,92.0.4515.131,Windows,10.0,5f461dd6c139dd6b46c7596cbd57cd79
185,1,"""","""","""","""","""",sampler,280,140090,0.0-6.0-274.0,"""","""","""","""","""","""","""","""","""","""","""","""","2021-08-09 16:15:56",94.9.82.158,"Mozilla/5.0 (Windows NT 10.0; Win64; x64) AppleWebKit/537.36 (KHTML, like Gecko) Chrome/92.0.4515.131 Safari/537.36",WebKit,Chrome,92.0.4515.131,Windows,10.0,5f461dd6c139dd6b46c7596cbd57cd79
