run_id,condition,success,timeout,failed_images,failed_audio,failed_video,trial_type,trial_index,time_elapsed,internal_node_id,rt,stimulus,key_press,responses,view_history,correct,image_click,points,sd,points2,total_earn,button_pressed,recorded_at,ip,user_agent,device,browser,browser_version,platform,platform_version,source_code_version
230,1,true,false,"""","""","""",preload,0,624,0.0-0.0,"""","""","""","""","""","""","""","""","""","""","""","""","2021-08-17 18:04:32",24.86.0.113,"Mozilla/5.0 (Windows NT 10.0; Win64; x64) AppleWebKit/537.36 (KHTML, like Gecko) Chrome/92.0.4515.159 Safari/537.36",WebKit,Chrome,92.0.4515.159,Windows,10.0,5f461dd6c139dd6b46c7596cbd57cd79
230,1,"""","""","""","""","""",html-keyboard-response,1,7080,0.0-1.0,6452,"<font size=15>Welcome to our experiment!</font><br><br><br><i> Press <b>space bar</b> to begin.</i>",32,"""","""","""","""","""","""","""","""","""","2021-08-17 18:04:32",24.86.0.113,"Mozilla/5.0 (Windows NT 10.0; Win64; x64) AppleWebKit/537.36 (KHTML, like Gecko) Chrome/92.0.4515.159 Safari/537.36",WebKit,Chrome,92.0.4515.159,Windows,10.0,5f461dd6c139dd6b46c7596cbd57cd79
230,1,"""","""","""","""","""",survey-multi-choice,2,42271,0.0-2.0,35189,"""","""","{""Q0"":""Yes"",""Q1"":""Yes"",""Q2"":""Yes"",""Q3"":""Yes""}","""","""","""","""","""","""","""","""","2021-08-17 18:04:32",24.86.0.113,"Mozilla/5.0 (Windows NT 10.0; Win64; x64) AppleWebKit/537.36 (KHTML, like Gecko) Chrome/92.0.4515.159 Safari/537.36",WebKit,Chrome,92.0.4515.159,Windows,10.0,5f461dd6c139dd6b46c7596cbd57cd79
230,1,"""","""","""","""","""",survey-html-form,3,53825,0.0-3.0,11550.900000035763,"""","""","{""gender"":""male"",""age"":""21"",""hand"":""right"",""mail"":""6100a099f0e51e2ddf3a7f8f""}","""","""","""","""","""","""","""","""","2021-08-17 18:04:32",24.86.0.113,"Mozilla/5.0 (Windows NT 10.0; Win64; x64) AppleWebKit/537.36 (KHTML, like Gecko) Chrome/92.0.4515.159 Safari/537.36",WebKit,Chrome,92.0.4515.159,Windows,10.0,5f461dd6c139dd6b46c7596cbd57cd79
230,1,true,"""","""","""","""",fullscreen,4,59064,0.0-4.0,"""","""","""","""","""","""","""","""","""","""","""","""","2021-08-17 18:04:32",24.86.0.113,"Mozilla/5.0 (Windows NT 10.0; Win64; x64) AppleWebKit/537.36 (KHTML, like Gecko) Chrome/92.0.4515.159 Safari/537.36",WebKit,Chrome,92.0.4515.159,Windows,10.0,5f461dd6c139dd6b46c7596cbd57cd79
230,1,"""","""","""","""","""",multikey-instructions,5,209824,0.0-5.0,150757,"""","""","""","[{""page_index"":0,""viewing_time"":19556},{""page_index"":1,""viewing_time"":15591},{""page_index"":2,""viewing_time"":5995},{""page_index"":1,""viewing_time"":632},{""page_index"":2,""viewing_time"":12887},{""page_index"":3,""viewing_time"":13824},{""page_index"":4,""viewing_time"":6340},{""page_index"":5,""viewing_time"":8152},{""page_index"":6,""viewing_time"":9751},{""page_index"":7,""viewing_time"":14739},{""page_index"":8,""viewing_time"":18707},{""page_index"":9,""viewing_time"":9851},{""page_index"":8,""viewing_time"":268},{""page_index"":9,""viewing_time"":332},{""page_index"":10,""viewing_time"":8320},{""page_index"":11,""viewing_time"":5812}]","""","""","""","""","""","""","""","2021-08-17 18:04:32",24.86.0.113,"Mozilla/5.0 (Windows NT 10.0; Win64; x64) AppleWebKit/537.36 (KHTML, like Gecko) Chrome/92.0.4515.159 Safari/537.36",WebKit,Chrome,92.0.4515.159,Windows,10.0,5f461dd6c139dd6b46c7596cbd57cd79
230,1,"""","""","""","""","""",sampler,6,226311,0.0-6.0-0.0,16077,img/Cobalt.png,"""","""","""",false,-1,1.2803190202272972,5,"""","""","""","2021-08-17 18:04:32",24.86.0.113,"Mozilla/5.0 (Windows NT 10.0; Win64; x64) AppleWebKit/537.36 (KHTML, like Gecko) Chrome/92.0.4515.159 Safari/537.36",WebKit,Chrome,92.0.4515.159,Windows,10.0,5f461dd6c139dd6b46c7596cbd57cd79
230,1,"""","""","""","""","""",sampler,7,227367,0.0-6.0-1.0,641,img/Cobalt.png,"""","""","""",false,-1,5.538387929514598,5,"""","""","""","2021-08-17 18:04:32",24.86.0.113,"Mozilla/5.0 (Windows NT 10.0; Win64; x64) AppleWebKit/537.36 (KHTML, like Gecko) Chrome/92.0.4515.159 Safari/537.36",WebKit,Chrome,92.0.4515.159,Windows,10.0,5f461dd6c139dd6b46c7596cbd57cd79
230,1,"""","""","""","""","""",sampler,8,228058,0.0-6.0-2.0,290,img/Cobalt.png,"""","""","""",false,-1,12.105625550946904,5,"""","""","""","2021-08-17 18:04:32",24.86.0.113,"Mozilla/5.0 (Windows NT 10.0; Win64; x64) AppleWebKit/537.36 (KHTML, like Gecko) Chrome/92.0.4515.159 Safari/537.36",WebKit,Chrome,92.0.4515.159,Windows,10.0,5f461dd6c139dd6b46c7596cbd57cd79
230,1,"""","""","""","""","""",sampler,9,228720,0.0-6.0-3.0,246,img/Cobalt.png,"""","""","""",false,-1,1.4060884993437592,5,"""","""","""","2021-08-17 18:04:32",24.86.0.113,"Mozilla/5.0 (Windows NT 10.0; Win64; x64) AppleWebKit/537.36 (KHTML, like Gecko) Chrome/92.0.4515.159 Safari/537.36",WebKit,Chrome,92.0.4515.159,Windows,10.0,5f461dd6c139dd6b46c7596cbd57cd79
230,1,"""","""","""","""","""",sampler,10,229304,0.0-6.0-4.0,172,img/Cobalt.png,"""","""","""",false,-1,4.320253185267308,5,"""","""","""","2021-08-17 18:04:32",24.86.0.113,"Mozilla/5.0 (Windows NT 10.0; Win64; x64) AppleWebKit/537.36 (KHTML, like Gecko) Chrome/92.0.4515.159 Safari/537.36",WebKit,Chrome,92.0.4515.159,Windows,10.0,5f461dd6c139dd6b46c7596cbd57cd79
230,1,"""","""","""","""","""",sampler,11,229825,0.0-6.0-5.0,112,img/Cobalt.png,"""","""","""",false,-1,4.240899928617922,5,"""","""","""","2021-08-17 18:04:32",24.86.0.113,"Mozilla/5.0 (Windows NT 10.0; Win64; x64) AppleWebKit/537.36 (KHTML, like Gecko) Chrome/92.0.4515.159 Safari/537.36",WebKit,Chrome,92.0.4515.159,Windows,10.0,5f461dd6c139dd6b46c7596cbd57cd79
230,1,"""","""","""","""","""",sampler,12,230517,0.0-6.0-6.0,283,img/Cobalt.png,"""","""","""",false,-1,2.7639670540823595,5,"""","""","""","2021-08-17 18:04:32",24.86.0.113,"Mozilla/5.0 (Windows NT 10.0; Win64; x64) AppleWebKit/537.36 (KHTML, like Gecko) Chrome/92.0.4515.159 Safari/537.36",WebKit,Chrome,92.0.4515.159,Windows,10.0,5f461dd6c139dd6b46c7596cbd57cd79
230,1,"""","""","""","""","""",sampler,13,231040,0.0-6.0-7.0,119,img/Cobalt.png,"""","""","""",false,-1,8.481316127008018,5,"""","""","""","2021-08-17 18:04:32",24.86.0.113,"Mozilla/5.0 (Windows NT 10.0; Win64; x64) AppleWebKit/537.36 (KHTML, like Gecko) Chrome/92.0.4515.159 Safari/537.36",WebKit,Chrome,92.0.4515.159,Windows,10.0,5f461dd6c139dd6b46c7596cbd57cd79
230,1,"""","""","""","""","""",sampler,14,231547,0.0-6.0-8.0,96,img/Cobalt.png,"""","""","""",false,-1,0.4238333494052151,5,"""","""","""","2021-08-17 18:04:32",24.86.0.113,"Mozilla/5.0 (Windows NT 10.0; Win64; x64) AppleWebKit/537.36 (KHTML, like Gecko) Chrome/92.0.4515.159 Safari/537.36",WebKit,Chrome,92.0.4515.159,Windows,10.0,5f461dd6c139dd6b46c7596cbd57cd79
230,1,"""","""","""","""","""",sampler,15,232103,0.0-6.0-9.0,153,img/Cobalt.png,"""","""","""",false,-1,2.1988315979920503,5,"""","""","""","2021-08-17 18:04:32",24.86.0.113,"Mozilla/5.0 (Windows NT 10.0; Win64; x64) AppleWebKit/537.36 (KHTML, like Gecko) Chrome/92.0.4515.159 Safari/537.36",WebKit,Chrome,92.0.4515.159,Windows,10.0,5f461dd6c139dd6b46c7596cbd57cd79
230,1,"""","""","""","""","""",sampler,16,232657,0.0-6.0-10.0,149,img/Cobalt.png,"""","""","""",false,-1,-0.3543559305550543,5,"""","""","""","2021-08-17 18:04:32",24.86.0.113,"Mozilla/5.0 (Windows NT 10.0; Win64; x64) AppleWebKit/537.36 (KHTML, like Gecko) Chrome/92.0.4515.159 Safari/537.36",WebKit,Chrome,92.0.4515.159,Windows,10.0,5f461dd6c139dd6b46c7596cbd57cd79
230,1,"""","""","""","""","""",sampler,17,233365,0.0-6.0-11.0,291,img/Cobalt.png,"""","""","""",false,-1,3.88026776988417,5,"""","""","""","2021-08-17 18:04:32",24.86.0.113,"Mozilla/5.0 (Windows NT 10.0; Win64; x64) AppleWebKit/537.36 (KHTML, like Gecko) Chrome/92.0.4515.159 Safari/537.36",WebKit,Chrome,92.0.4515.159,Windows,10.0,5f461dd6c139dd6b46c7596cbd57cd79
230,1,"""","""","""","""","""",sampler,18,233979,0.0-6.0-12.0,199,img/Cobalt.png,"""","""","""",false,-1,10.77391328638049,5,"""","""","""","2021-08-17 18:04:32",24.86.0.113,"Mozilla/5.0 (Windows NT 10.0; Win64; x64) AppleWebKit/537.36 (KHTML, like Gecko) Chrome/92.0.4515.159 Safari/537.36",WebKit,Chrome,92.0.4515.159,Windows,10.0,5f461dd6c139dd6b46c7596cbd57cd79
230,1,"""","""","""","""","""",sampler,19,234487,0.0-6.0-13.0,94,img/Cobalt.png,"""","""","""",false,-1,-1.5838751008187266,5,"""","""","""","2021-08-17 18:04:32",24.86.0.113,"Mozilla/5.0 (Windows NT 10.0; Win64; x64) AppleWebKit/537.36 (KHTML, like Gecko) Chrome/92.0.4515.159 Safari/537.36",WebKit,Chrome,92.0.4515.159,Windows,10.0,5f461dd6c139dd6b46c7596cbd57cd79
230,1,"""","""","""","""","""",sampler,20,235132,0.0-6.0-14.0,229,img/Cobalt.png,"""","""","""",false,-1,11.577110047505423,5,"""","""","""","2021-08-17 18:04:32",24.86.0.113,"Mozilla/5.0 (Windows NT 10.0; Win64; x64) AppleWebKit/537.36 (KHTML, like Gecko) Chrome/92.0.4515.159 Safari/537.36",WebKit,Chrome,92.0.4515.159,Windows,10.0,5f461dd6c139dd6b46c7596cbd57cd79
230,1,"""","""","""","""","""",sampler,21,235670,0.0-6.0-15.0,129,img/Cobalt.png,"""","""","""",false,-1,-3.4605149062803946,5,"""","""","""","2021-08-17 18:04:32",24.86.0.113,"Mozilla/5.0 (Windows NT 10.0; Win64; x64) AppleWebKit/537.36 (KHTML, like Gecko) Chrome/92.0.4515.159 Safari/537.36",WebKit,Chrome,92.0.4515.159,Windows,10.0,5f461dd6c139dd6b46c7596cbd57cd79
230,1,"""","""","""","""","""",sampler,22,236318,0.0-6.0-16.0,242,img/Cobalt.png,"""","""","""",false,-1,4.135814776441256,5,"""","""","""","2021-08-17 18:04:32",24.86.0.113,"Mozilla/5.0 (Windows NT 10.0; Win64; x64) AppleWebKit/537.36 (KHTML, like Gecko) Chrome/92.0.4515.159 Safari/537.36",WebKit,Chrome,92.0.4515.159,Windows,10.0,5f461dd6c139dd6b46c7596cbd57cd79
230,1,"""","""","""","""","""",sampler,23,236857,0.0-6.0-17.0,123,img/Cobalt.png,"""","""","""",false,-1,7.448896758087985,5,"""","""","""","2021-08-17 18:04:32",24.86.0.113,"Mozilla/5.0 (Windows NT 10.0; Win64; x64) AppleWebKit/537.36 (KHTML, like Gecko) Chrome/92.0.4515.159 Safari/537.36",WebKit,Chrome,92.0.4515.159,Windows,10.0,5f461dd6c139dd6b46c7596cbd57cd79
230,1,"""","""","""","""","""",sampler,24,237380,0.0-6.0-18.0,112,img/Cobalt.png,"""","""","""",false,-1,10.655126419346438,5,"""","""","""","2021-08-17 18:04:32",24.86.0.113,"Mozilla/5.0 (Windows NT 10.0; Win64; x64) AppleWebKit/537.36 (KHTML, like Gecko) Chrome/92.0.4515.159 Safari/537.36",WebKit,Chrome,92.0.4515.159,Windows,10.0,5f461dd6c139dd6b46c7596cbd57cd79
230,1,"""","""","""","""","""",sampler,25,238058,0.0-6.0-19.0,264,img/Cobalt.png,"""","""","""",false,-1,-0.2870793741172397,5,"""","""","""","2021-08-17 18:04:32",24.86.0.113,"Mozilla/5.0 (Windows NT 10.0; Win64; x64) AppleWebKit/537.36 (KHTML, like Gecko) Chrome/92.0.4515.159 Safari/537.36",WebKit,Chrome,92.0.4515.159,Windows,10.0,5f461dd6c139dd6b46c7596cbd57cd79
230,1,"""","""","""","""","""",sampler,26,239779,0.0-6.0-20.0,1306,img/Cobalt.png,"""","""","""",false,-1,-10.18273498274258,5,"""","""","""","2021-08-17 18:04:32",24.86.0.113,"Mozilla/5.0 (Windows NT 10.0; Win64; x64) AppleWebKit/537.36 (KHTML, like Gecko) Chrome/92.0.4515.159 Safari/537.36",WebKit,Chrome,92.0.4515.159,Windows,10.0,5f461dd6c139dd6b46c7596cbd57cd79
230,1,"""","""","""","""","""",sampler,27,241086,0.0-6.0-21.0,894,img/Cobalt.png,"""","""","""",false,-1,7.127641030255056,5,"""","""","""","2021-08-17 18:04:32",24.86.0.113,"Mozilla/5.0 (Windows NT 10.0; Win64; x64) AppleWebKit/537.36 (KHTML, like Gecko) Chrome/92.0.4515.159 Safari/537.36",WebKit,Chrome,92.0.4515.159,Windows,10.0,5f461dd6c139dd6b46c7596cbd57cd79
230,1,"""","""","""","""","""",sampler,28,241883,0.0-6.0-22.0,395,img/Cobalt.png,"""","""","""",false,-1,6.864350174093211,5,"""","""","""","2021-08-17 18:04:32",24.86.0.113,"Mozilla/5.0 (Windows NT 10.0; Win64; x64) AppleWebKit/537.36 (KHTML, like Gecko) Chrome/92.0.4515.159 Safari/537.36",WebKit,Chrome,92.0.4515.159,Windows,10.0,5f461dd6c139dd6b46c7596cbd57cd79
230,1,"""","""","""","""","""",sampler,29,242391,0.0-6.0-23.0,101,img/Cobalt.png,"""","""","""",false,-1,7.791188461054688,5,"""","""","""","2021-08-17 18:04:32",24.86.0.113,"Mozilla/5.0 (Windows NT 10.0; Win64; x64) AppleWebKit/537.36 (KHTML, like Gecko) Chrome/92.0.4515.159 Safari/537.36",WebKit,Chrome,92.0.4515.159,Windows,10.0,5f461dd6c139dd6b46c7596cbd57cd79
230,1,"""","""","""","""","""",sampler,30,242912,0.0-6.0-24.0,113,img/Cobalt.png,"""","""","""",false,-1,2.8252474231942557,5,"""","""","""","2021-08-17 18:04:32",24.86.0.113,"Mozilla/5.0 (Windows NT 10.0; Win64; x64) AppleWebKit/537.36 (KHTML, like Gecko) Chrome/92.0.4515.159 Safari/537.36",WebKit,Chrome,92.0.4515.159,Windows,10.0,5f461dd6c139dd6b46c7596cbd57cd79
230,1,"""","""","""","""","""",sampler,31,243405,0.0-6.0-25.0,76,img/Cobalt.png,"""","""","""",false,-1,6.541657478032563,5,"""","""","""","2021-08-17 18:04:32",24.86.0.113,"Mozilla/5.0 (Windows NT 10.0; Win64; x64) AppleWebKit/537.36 (KHTML, like Gecko) Chrome/92.0.4515.159 Safari/537.36",WebKit,Chrome,92.0.4515.159,Windows,10.0,5f461dd6c139dd6b46c7596cbd57cd79
230,1,"""","""","""","""","""",sampler,32,243858,0.0-6.0-26.0,42,img/Cobalt.png,"""","""","""",false,-1,4.600378366378619,5,"""","""","""","2021-08-17 18:04:32",24.86.0.113,"Mozilla/5.0 (Windows NT 10.0; Win64; x64) AppleWebKit/537.36 (KHTML, like Gecko) Chrome/92.0.4515.159 Safari/537.36",WebKit,Chrome,92.0.4515.159,Windows,10.0,5f461dd6c139dd6b46c7596cbd57cd79
230,1,"""","""","""","""","""",sampler,33,244348,0.0-6.0-27.0,78,img/Cobalt.png,"""","""","""",false,-1,4.829066751441239,5,"""","""","""","2021-08-17 18:04:32",24.86.0.113,"Mozilla/5.0 (Windows NT 10.0; Win64; x64) AppleWebKit/537.36 (KHTML, like Gecko) Chrome/92.0.4515.159 Safari/537.36",WebKit,Chrome,92.0.4515.159,Windows,10.0,5f461dd6c139dd6b46c7596cbd57cd79
230,1,"""","""","""","""","""",sampler,34,244810,0.0-6.0-28.0,52,img/Cobalt.png,"""","""","""",false,-1,9.11884808925534,5,"""","""","""","2021-08-17 18:04:32",24.86.0.113,"Mozilla/5.0 (Windows NT 10.0; Win64; x64) AppleWebKit/537.36 (KHTML, like Gecko) Chrome/92.0.4515.159 Safari/537.36",WebKit,Chrome,92.0.4515.159,Windows,10.0,5f461dd6c139dd6b46c7596cbd57cd79
230,1,"""","""","""","""","""",sampler,35,245257,0.0-6.0-29.0,38,img/Cobalt.png,"""","""","""",false,-1,6.938974457344292,5,"""","""","""","2021-08-17 18:04:32",24.86.0.113,"Mozilla/5.0 (Windows NT 10.0; Win64; x64) AppleWebKit/537.36 (KHTML, like Gecko) Chrome/92.0.4515.159 Safari/537.36",WebKit,Chrome,92.0.4515.159,Windows,10.0,5f461dd6c139dd6b46c7596cbd57cd79
230,1,"""","""","""","""","""",sampler,36,245747,0.0-6.0-30.0,86,img/Cobalt.png,"""","""","""",false,-1,6.239226759450713,5,"""","""","""","2021-08-17 18:04:32",24.86.0.113,"Mozilla/5.0 (Windows NT 10.0; Win64; x64) AppleWebKit/537.36 (KHTML, like Gecko) Chrome/92.0.4515.159 Safari/537.36",WebKit,Chrome,92.0.4515.159,Windows,10.0,5f461dd6c139dd6b46c7596cbd57cd79
230,1,"""","""","""","""","""",sampler,37,246257,0.0-6.0-31.0,97,img/Cobalt.png,"""","""","""",false,-1,0.30905330675560183,5,"""","""","""","2021-08-17 18:04:32",24.86.0.113,"Mozilla/5.0 (Windows NT 10.0; Win64; x64) AppleWebKit/537.36 (KHTML, like Gecko) Chrome/92.0.4515.159 Safari/537.36",WebKit,Chrome,92.0.4515.159,Windows,10.0,5f461dd6c139dd6b46c7596cbd57cd79
230,1,"""","""","""","""","""",sampler,38,246669,0.0-6.0-32.0,7,img/Cobalt.png,"""","""","""",false,-1,4.636024468371744,5,"""","""","""","2021-08-17 18:04:32",24.86.0.113,"Mozilla/5.0 (Windows NT 10.0; Win64; x64) AppleWebKit/537.36 (KHTML, like Gecko) Chrome/92.0.4515.159 Safari/537.36",WebKit,Chrome,92.0.4515.159,Windows,10.0,5f461dd6c139dd6b46c7596cbd57cd79
230,1,"""","""","""","""","""",sampler,39,247133,0.0-6.0-33.0,46,img/Cobalt.png,"""","""","""",false,-1,3.0958335625590885,5,"""","""","""","2021-08-17 18:04:32",24.86.0.113,"Mozilla/5.0 (Windows NT 10.0; Win64; x64) AppleWebKit/537.36 (KHTML, like Gecko) Chrome/92.0.4515.159 Safari/537.36",WebKit,Chrome,92.0.4515.159,Windows,10.0,5f461dd6c139dd6b46c7596cbd57cd79
230,1,"""","""","""","""","""",sampler,40,247678,0.0-6.0-34.0,135,img/Cobalt.png,"""","""","""",false,-1,-4.729298586208234,5,"""","""","""","2021-08-17 18:04:32",24.86.0.113,"Mozilla/5.0 (Windows NT 10.0; Win64; x64) AppleWebKit/537.36 (KHTML, like Gecko) Chrome/92.0.4515.159 Safari/537.36",WebKit,Chrome,92.0.4515.159,Windows,10.0,5f461dd6c139dd6b46c7596cbd57cd79
230,1,"""","""","""","""","""",sampler,41,248574,0.0-6.0-35.0,493,img/Cobalt.png,"""","""","""",false,-1,7.686512016259968,5,"""","""","""","2021-08-17 18:04:32",24.86.0.113,"Mozilla/5.0 (Windows NT 10.0; Win64; x64) AppleWebKit/537.36 (KHTML, like Gecko) Chrome/92.0.4515.159 Safari/537.36",WebKit,Chrome,92.0.4515.159,Windows,10.0,5f461dd6c139dd6b46c7596cbd57cd79
230,1,"""","""","""","""","""",sampler,42,249035,0.0-6.0-36.0,58,img/Cobalt.png,"""","""","""",false,-1,13.2036693383292,5,"""","""","""","2021-08-17 18:04:32",24.86.0.113,"Mozilla/5.0 (Windows NT 10.0; Win64; x64) AppleWebKit/537.36 (KHTML, like Gecko) Chrome/92.0.4515.159 Safari/537.36",WebKit,Chrome,92.0.4515.159,Windows,10.0,5f461dd6c139dd6b46c7596cbd57cd79
230,1,"""","""","""","""","""",sampler,43,249453,0.0-6.0-37.0,15,img/Cobalt.png,"""","""","""",false,-1,-0.4722490378303368,5,"""","""","""","2021-08-17 18:04:32",24.86.0.113,"Mozilla/5.0 (Windows NT 10.0; Win64; x64) AppleWebKit/537.36 (KHTML, like Gecko) Chrome/92.0.4515.159 Safari/537.36",WebKit,Chrome,92.0.4515.159,Windows,10.0,5f461dd6c139dd6b46c7596cbd57cd79
230,1,"""","""","""","""","""",sampler,44,250759,0.0-6.0-38.0,890,img/Cobalt.png,"""","""","""",false,-1,15.303749322792168,5,"""","""","""","2021-08-17 18:04:32",24.86.0.113,"Mozilla/5.0 (Windows NT 10.0; Win64; x64) AppleWebKit/537.36 (KHTML, like Gecko) Chrome/92.0.4515.159 Safari/537.36",WebKit,Chrome,92.0.4515.159,Windows,10.0,5f461dd6c139dd6b46c7596cbd57cd79
230,1,"""","""","""","""","""",sampler,45,251407,0.0-6.0-39.0,245,img/Cobalt.png,"""","""","""",false,-1,0.24739040785403343,5,"""","""","""","2021-08-17 18:04:32",24.86.0.113,"Mozilla/5.0 (Windows NT 10.0; Win64; x64) AppleWebKit/537.36 (KHTML, like Gecko) Chrome/92.0.4515.159 Safari/537.36",WebKit,Chrome,92.0.4515.159,Windows,10.0,5f461dd6c139dd6b46c7596cbd57cd79
230,1,"""","""","""","""","""",sampler,46,252072,0.0-6.0-40.0,260,img/Cobalt.png,"""","""","""",false,-1,4.7322135662757665,5,"""","""","""","2021-08-17 18:04:32",24.86.0.113,"Mozilla/5.0 (Windows NT 10.0; Win64; x64) AppleWebKit/537.36 (KHTML, like Gecko) Chrome/92.0.4515.159 Safari/537.36",WebKit,Chrome,92.0.4515.159,Windows,10.0,5f461dd6c139dd6b46c7596cbd57cd79
230,1,"""","""","""","""","""",sampler,47,253331,0.0-6.0-41.0,856,img/Cobalt.png,"""","""","""",false,-1,-2.2598148449459465,5,"""","""","""","2021-08-17 18:04:32",24.86.0.113,"Mozilla/5.0 (Windows NT 10.0; Win64; x64) AppleWebKit/537.36 (KHTML, like Gecko) Chrome/92.0.4515.159 Safari/537.36",WebKit,Chrome,92.0.4515.159,Windows,10.0,5f461dd6c139dd6b46c7596cbd57cd79
230,1,"""","""","""","""","""",sampler,48,254498,0.0-6.0-42.0,764,img/Cobalt.png,"""","""","""",false,-1,0.3143280887816635,5,"""","""","""","2021-08-17 18:04:32",24.86.0.113,"Mozilla/5.0 (Windows NT 10.0; Win64; x64) AppleWebKit/537.36 (KHTML, like Gecko) Chrome/92.0.4515.159 Safari/537.36",WebKit,Chrome,92.0.4515.159,Windows,10.0,5f461dd6c139dd6b46c7596cbd57cd79
230,1,"""","""","""","""","""",sampler,49,255068,0.0-6.0-43.0,152,img/Cobalt.png,"""","""","""",false,-1,4.75241806388671,5,"""","""","""","2021-08-17 18:04:32",24.86.0.113,"Mozilla/5.0 (Windows NT 10.0; Win64; x64) AppleWebKit/537.36 (KHTML, like Gecko) Chrome/92.0.4515.159 Safari/537.36",WebKit,Chrome,92.0.4515.159,Windows,10.0,5f461dd6c139dd6b46c7596cbd57cd79
230,1,"""","""","""","""","""",sampler,50,255575,0.0-6.0-44.0,96,img/Cobalt.png,"""","""","""",false,-1,7.630110796885618,5,"""","""","""","2021-08-17 18:04:32",24.86.0.113,"Mozilla/5.0 (Windows NT 10.0; Win64; x64) AppleWebKit/537.36 (KHTML, like Gecko) Chrome/92.0.4515.159 Safari/537.36",WebKit,Chrome,92.0.4515.159,Windows,10.0,5f461dd6c139dd6b46c7596cbd57cd79
230,1,"""","""","""","""","""",sampler,51,256084,0.0-6.0-45.0,105,img/Cobalt.png,"""","""","""",false,-1,11.543414592622097,5,"""","""","""","2021-08-17 18:04:32",24.86.0.113,"Mozilla/5.0 (Windows NT 10.0; Win64; x64) AppleWebKit/537.36 (KHTML, like Gecko) Chrome/92.0.4515.159 Safari/537.36",WebKit,Chrome,92.0.4515.159,Windows,10.0,5f461dd6c139dd6b46c7596cbd57cd79
230,1,"""","""","""","""","""",sampler,52,256575,0.0-6.0-46.0,87,img/Cobalt.png,"""","""","""",false,-1,10.328409212420492,5,"""","""","""","2021-08-17 18:04:32",24.86.0.113,"Mozilla/5.0 (Windows NT 10.0; Win64; x64) AppleWebKit/537.36 (KHTML, like Gecko) Chrome/92.0.4515.159 Safari/537.36",WebKit,Chrome,92.0.4515.159,Windows,10.0,5f461dd6c139dd6b46c7596cbd57cd79
230,1,"""","""","""","""","""",sampler,53,257075,0.0-6.0-47.0,96,img/Cobalt.png,"""","""","""",false,-1,4.592170949025431,5,"""","""","""","2021-08-17 18:04:32",24.86.0.113,"Mozilla/5.0 (Windows NT 10.0; Win64; x64) AppleWebKit/537.36 (KHTML, like Gecko) Chrome/92.0.4515.159 Safari/537.36",WebKit,Chrome,92.0.4515.159,Windows,10.0,5f461dd6c139dd6b46c7596cbd57cd79
230,1,"""","""","""","""","""",sampler,54,257577,0.0-6.0-48.0,93,img/Cobalt.png,"""","""","""",false,-1,1.7427069378755569,5,"""","""","""","2021-08-17 18:04:32",24.86.0.113,"Mozilla/5.0 (Windows NT 10.0; Win64; x64) AppleWebKit/537.36 (KHTML, like Gecko) Chrome/92.0.4515.159 Safari/537.36",WebKit,Chrome,92.0.4515.159,Windows,10.0,5f461dd6c139dd6b46c7596cbd57cd79
230,1,"""","""","""","""","""",sampler,55,258062,0.0-6.0-49.0,74,img/Cobalt.png,"""","""","""",false,-1,-2.4240574777251176,5,"""","""","""","2021-08-17 18:04:32",24.86.0.113,"Mozilla/5.0 (Windows NT 10.0; Win64; x64) AppleWebKit/537.36 (KHTML, like Gecko) Chrome/92.0.4515.159 Safari/537.36",WebKit,Chrome,92.0.4515.159,Windows,10.0,5f461dd6c139dd6b46c7596cbd57cd79
230,1,"""","""","""","""","""",sampler,56,259024,0.0-6.0-50.0,548,img/Cobalt.png,"""","""","""",false,-1,-1.856854490069872,5,"""","""","""","2021-08-17 18:04:32",24.86.0.113,"Mozilla/5.0 (Windows NT 10.0; Win64; x64) AppleWebKit/537.36 (KHTML, like Gecko) Chrome/92.0.4515.159 Safari/537.36",WebKit,Chrome,92.0.4515.159,Windows,10.0,5f461dd6c139dd6b46c7596cbd57cd79
230,1,"""","""","""","""","""",sampler,57,259753,0.0-6.0-51.0,320,img/Cobalt.png,"""","""","""",false,-1,3.799892072749371,5,"""","""","""","2021-08-17 18:04:32",24.86.0.113,"Mozilla/5.0 (Windows NT 10.0; Win64; x64) AppleWebKit/537.36 (KHTML, like Gecko) Chrome/92.0.4515.159 Safari/537.36",WebKit,Chrome,92.0.4515.159,Windows,10.0,5f461dd6c139dd6b46c7596cbd57cd79
230,1,"""","""","""","""","""",sampler,58,260962,0.0-6.0-52.0,797,img/Cobalt.png,"""","""","""",false,-1,3.645924484472645,5,"""","""","""","2021-08-17 18:04:32",24.86.0.113,"Mozilla/5.0 (Windows NT 10.0; Win64; x64) AppleWebKit/537.36 (KHTML, like Gecko) Chrome/92.0.4515.159 Safari/537.36",WebKit,Chrome,92.0.4515.159,Windows,10.0,5f461dd6c139dd6b46c7596cbd57cd79
230,1,"""","""","""","""","""",sampler,59,261427,0.0-6.0-53.0,57,img/Cobalt.png,"""","""","""",false,-1,9.352358964208186,5,"""","""","""","2021-08-17 18:04:32",24.86.0.113,"Mozilla/5.0 (Windows NT 10.0; Win64; x64) AppleWebKit/537.36 (KHTML, like Gecko) Chrome/92.0.4515.159 Safari/537.36",WebKit,Chrome,92.0.4515.159,Windows,10.0,5f461dd6c139dd6b46c7596cbd57cd79
230,1,"""","""","""","""","""",sampler,60,261949,0.0-6.0-54.0,115,img/Cobalt.png,"""","""","""",false,-1,10.312452939449429,5,"""","""","""","2021-08-17 18:04:32",24.86.0.113,"Mozilla/5.0 (Windows NT 10.0; Win64; x64) AppleWebKit/537.36 (KHTML, like Gecko) Chrome/92.0.4515.159 Safari/537.36",WebKit,Chrome,92.0.4515.159,Windows,10.0,5f461dd6c139dd6b46c7596cbd57cd79
230,1,"""","""","""","""","""",sampler,61,262519,0.0-6.0-55.0,153,img/Cobalt.png,"""","""","""",false,-1,8.632273457521547,5,"""","""","""","2021-08-17 18:04:32",24.86.0.113,"Mozilla/5.0 (Windows NT 10.0; Win64; x64) AppleWebKit/537.36 (KHTML, like Gecko) Chrome/92.0.4515.159 Safari/537.36",WebKit,Chrome,92.0.4515.159,Windows,10.0,5f461dd6c139dd6b46c7596cbd57cd79
230,1,"""","""","""","""","""",sampler,62,262933,0.0-6.0-56.0,4,img/Cobalt.png,"""","""","""",false,-1,1.8300723002046202,5,"""","""","""","2021-08-17 18:04:32",24.86.0.113,"Mozilla/5.0 (Windows NT 10.0; Win64; x64) AppleWebKit/537.36 (KHTML, like Gecko) Chrome/92.0.4515.159 Safari/537.36",WebKit,Chrome,92.0.4515.159,Windows,10.0,5f461dd6c139dd6b46c7596cbd57cd79
230,1,"""","""","""","""","""",sampler,63,263457,0.0-6.0-57.0,121,img/Cobalt.png,"""","""","""",false,-1,1.772235157113188,5,"""","""","""","2021-08-17 18:04:32",24.86.0.113,"Mozilla/5.0 (Windows NT 10.0; Win64; x64) AppleWebKit/537.36 (KHTML, like Gecko) Chrome/92.0.4515.159 Safari/537.36",WebKit,Chrome,92.0.4515.159,Windows,10.0,5f461dd6c139dd6b46c7596cbd57cd79
230,1,"""","""","""","""","""",sampler,64,263902,0.0-6.0-58.0,41,img/Cobalt.png,"""","""","""",false,-1,8.727632344410496,5,"""","""","""","2021-08-17 18:04:32",24.86.0.113,"Mozilla/5.0 (Windows NT 10.0; Win64; x64) AppleWebKit/537.36 (KHTML, like Gecko) Chrome/92.0.4515.159 Safari/537.36",WebKit,Chrome,92.0.4515.159,Windows,10.0,5f461dd6c139dd6b46c7596cbd57cd79
230,1,"""","""","""","""","""",sampler,65,264366,0.0-6.0-59.0,56,img/Cobalt.png,"""","""","""",false,-1,9.268497277339108,5,"""","""","""","2021-08-17 18:04:32",24.86.0.113,"Mozilla/5.0 (Windows NT 10.0; Win64; x64) AppleWebKit/537.36 (KHTML, like Gecko) Chrome/92.0.4515.159 Safari/537.36",WebKit,Chrome,92.0.4515.159,Windows,10.0,5f461dd6c139dd6b46c7596cbd57cd79
230,1,"""","""","""","""","""",sampler,66,264778,0.0-6.0-60.0,9,img/Cobalt.png,"""","""","""",false,-1,11.128305903554995,5,"""","""","""","2021-08-17 18:04:32",24.86.0.113,"Mozilla/5.0 (Windows NT 10.0; Win64; x64) AppleWebKit/537.36 (KHTML, like Gecko) Chrome/92.0.4515.159 Safari/537.36",WebKit,Chrome,92.0.4515.159,Windows,10.0,5f461dd6c139dd6b46c7596cbd57cd79
230,1,"""","""","""","""","""",sampler,67,265208,0.0-6.0-61.0,28,img/Cobalt.png,"""","""","""",false,-1,3.6565296329787165,5,"""","""","""","2021-08-17 18:04:32",24.86.0.113,"Mozilla/5.0 (Windows NT 10.0; Win64; x64) AppleWebKit/537.36 (KHTML, like Gecko) Chrome/92.0.4515.159 Safari/537.36",WebKit,Chrome,92.0.4515.159,Windows,10.0,5f461dd6c139dd6b46c7596cbd57cd79
230,1,"""","""","""","""","""",sampler,68,265746,0.0-6.0-62.0,134,img/Cobalt.png,"""","""","""",false,-1,7.600774083535541,5,"""","""","""","2021-08-17 18:04:32",24.86.0.113,"Mozilla/5.0 (Windows NT 10.0; Win64; x64) AppleWebKit/537.36 (KHTML, like Gecko) Chrome/92.0.4515.159 Safari/537.36",WebKit,Chrome,92.0.4515.159,Windows,10.0,5f461dd6c139dd6b46c7596cbd57cd79
230,1,"""","""","""","""","""",sampler,69,266240,0.0-6.0-63.0,76,img/Cobalt.png,"""","""","""",false,-1,10.073324532243127,5,"""","""","""","2021-08-17 18:04:32",24.86.0.113,"Mozilla/5.0 (Windows NT 10.0; Win64; x64) AppleWebKit/537.36 (KHTML, like Gecko) Chrome/92.0.4515.159 Safari/537.36",WebKit,Chrome,92.0.4515.159,Windows,10.0,5f461dd6c139dd6b46c7596cbd57cd79
230,1,"""","""","""","""","""",sampler,70,266701,0.0-6.0-64.0,58,img/Cobalt.png,"""","""","""",false,-1,5.0570287824365785,5,"""","""","""","2021-08-17 18:04:32",24.86.0.113,"Mozilla/5.0 (Windows NT 10.0; Win64; x64) AppleWebKit/537.36 (KHTML, like Gecko) Chrome/92.0.4515.159 Safari/537.36",WebKit,Chrome,92.0.4515.159,Windows,10.0,5f461dd6c139dd6b46c7596cbd57cd79
230,1,"""","""","""","""","""",sampler,71,267164,0.0-6.0-65.0,56,img/Cobalt.png,"""","""","""",false,-1,2.30681142524157,5,"""","""","""","2021-08-17 18:04:32",24.86.0.113,"Mozilla/5.0 (Windows NT 10.0; Win64; x64) AppleWebKit/537.36 (KHTML, like Gecko) Chrome/92.0.4515.159 Safari/537.36",WebKit,Chrome,92.0.4515.159,Windows,10.0,5f461dd6c139dd6b46c7596cbd57cd79
230,1,"""","""","""","""","""",sampler,72,267642,0.0-6.0-66.0,67,img/Cobalt.png,"""","""","""",false,-1,4.933925140559478,5,"""","""","""","2021-08-17 18:04:32",24.86.0.113,"Mozilla/5.0 (Windows NT 10.0; Win64; x64) AppleWebKit/537.36 (KHTML, like Gecko) Chrome/92.0.4515.159 Safari/537.36",WebKit,Chrome,92.0.4515.159,Windows,10.0,5f461dd6c139dd6b46c7596cbd57cd79
230,1,"""","""","""","""","""",sampler,73,268087,0.0-6.0-67.0,33,img/Cobalt.png,"""","""","""",false,-1,5.31075592039484,5,"""","""","""","2021-08-17 18:04:32",24.86.0.113,"Mozilla/5.0 (Windows NT 10.0; Win64; x64) AppleWebKit/537.36 (KHTML, like Gecko) Chrome/92.0.4515.159 Safari/537.36",WebKit,Chrome,92.0.4515.159,Windows,10.0,5f461dd6c139dd6b46c7596cbd57cd79
230,1,"""","""","""","""","""",sampler,74,268538,0.0-6.0-68.0,36,img/Cobalt.png,"""","""","""",false,-1,2.508177510420577,5,"""","""","""","2021-08-17 18:04:32",24.86.0.113,"Mozilla/5.0 (Windows NT 10.0; Win64; x64) AppleWebKit/537.36 (KHTML, like Gecko) Chrome/92.0.4515.159 Safari/537.36",WebKit,Chrome,92.0.4515.159,Windows,10.0,5f461dd6c139dd6b46c7596cbd57cd79
230,1,"""","""","""","""","""",sampler,75,269014,0.0-6.0-69.0,64,img/Cobalt.png,"""","""","""",false,-1,3.910273017718797,5,"""","""","""","2021-08-17 18:04:32",24.86.0.113,"Mozilla/5.0 (Windows NT 10.0; Win64; x64) AppleWebKit/537.36 (KHTML, like Gecko) Chrome/92.0.4515.159 Safari/537.36",WebKit,Chrome,92.0.4515.159,Windows,10.0,5f461dd6c139dd6b46c7596cbd57cd79
230,1,"""","""","""","""","""",sampler,76,269473,0.0-6.0-70.0,57,img/Cobalt.png,"""","""","""",false,-1,5.067220728707974,5,"""","""","""","2021-08-17 18:04:32",24.86.0.113,"Mozilla/5.0 (Windows NT 10.0; Win64; x64) AppleWebKit/537.36 (KHTML, like Gecko) Chrome/92.0.4515.159 Safari/537.36",WebKit,Chrome,92.0.4515.159,Windows,10.0,5f461dd6c139dd6b46c7596cbd57cd79
230,1,"""","""","""","""","""",sampler,77,270168,0.0-6.0-71.0,289,img/Cobalt.png,"""","""","""",false,-1,7.331349834970326,5,"""","""","""","2021-08-17 18:04:32",24.86.0.113,"Mozilla/5.0 (Windows NT 10.0; Win64; x64) AppleWebKit/537.36 (KHTML, like Gecko) Chrome/92.0.4515.159 Safari/537.36",WebKit,Chrome,92.0.4515.159,Windows,10.0,5f461dd6c139dd6b46c7596cbd57cd79
230,1,"""","""","""","""","""",sampler,78,270692,0.0-6.0-72.0,111,img/Cobalt.png,"""","""","""",false,-1,5.238747243313694,5,"""","""","""","2021-08-17 18:04:32",24.86.0.113,"Mozilla/5.0 (Windows NT 10.0; Win64; x64) AppleWebKit/537.36 (KHTML, like Gecko) Chrome/92.0.4515.159 Safari/537.36",WebKit,Chrome,92.0.4515.159,Windows,10.0,5f461dd6c139dd6b46c7596cbd57cd79
230,1,"""","""","""","""","""",sampler,79,271184,0.0-6.0-73.0,83,img/Cobalt.png,"""","""","""",false,-1,11.346526631302183,5,"""","""","""","2021-08-17 18:04:32",24.86.0.113,"Mozilla/5.0 (Windows NT 10.0; Win64; x64) AppleWebKit/537.36 (KHTML, like Gecko) Chrome/92.0.4515.159 Safari/537.36",WebKit,Chrome,92.0.4515.159,Windows,10.0,5f461dd6c139dd6b46c7596cbd57cd79
230,1,"""","""","""","""","""",sampler,80,271678,0.0-6.0-74.0,78,img/Cobalt.png,"""","""","""",false,-1,7.721824631714744,5,"""","""","""","2021-08-17 18:04:32",24.86.0.113,"Mozilla/5.0 (Windows NT 10.0; Win64; x64) AppleWebKit/537.36 (KHTML, like Gecko) Chrome/92.0.4515.159 Safari/537.36",WebKit,Chrome,92.0.4515.159,Windows,10.0,5f461dd6c139dd6b46c7596cbd57cd79
230,1,"""","""","""","""","""",sampler,81,272093,0.0-6.0-75.0,13,img/Cobalt.png,"""","""","""",false,-1,3.9041322514605215,5,"""","""","""","2021-08-17 18:04:32",24.86.0.113,"Mozilla/5.0 (Windows NT 10.0; Win64; x64) AppleWebKit/537.36 (KHTML, like Gecko) Chrome/92.0.4515.159 Safari/537.36",WebKit,Chrome,92.0.4515.159,Windows,10.0,5f461dd6c139dd6b46c7596cbd57cd79
230,1,"""","""","""","""","""",sampler,82,272588,0.0-6.0-76.0,84,img/Cobalt.png,"""","""","""",false,-1,7.55935194185865,5,"""","""","""","2021-08-17 18:04:32",24.86.0.113,"Mozilla/5.0 (Windows NT 10.0; Win64; x64) AppleWebKit/537.36 (KHTML, like Gecko) Chrome/92.0.4515.159 Safari/537.36",WebKit,Chrome,92.0.4515.159,Windows,10.0,5f461dd6c139dd6b46c7596cbd57cd79
230,1,"""","""","""","""","""",sampler,83,273435,0.0-6.0-77.0,439,img/Cobalt.png,"""","""","""",false,-1,10.282546169950521,5,"""","""","""","2021-08-17 18:04:32",24.86.0.113,"Mozilla/5.0 (Windows NT 10.0; Win64; x64) AppleWebKit/537.36 (KHTML, like Gecko) Chrome/92.0.4515.159 Safari/537.36",WebKit,Chrome,92.0.4515.159,Windows,10.0,5f461dd6c139dd6b46c7596cbd57cd79
230,1,"""","""","""","""","""",sampler,84,274158,0.0-6.0-78.0,311,img/Cobalt.png,"""","""","""",false,-1,7.492915866717549,5,"""","""","""","2021-08-17 18:04:32",24.86.0.113,"Mozilla/5.0 (Windows NT 10.0; Win64; x64) AppleWebKit/537.36 (KHTML, like Gecko) Chrome/92.0.4515.159 Safari/537.36",WebKit,Chrome,92.0.4515.159,Windows,10.0,5f461dd6c139dd6b46c7596cbd57cd79
230,1,"""","""","""","""","""",sampler,85,274989,0.0-6.0-79.0,421,img/Cobalt.png,"""","""","""",false,-1,13.949712124476369,5,"""","""","""","2021-08-17 18:04:32",24.86.0.113,"Mozilla/5.0 (Windows NT 10.0; Win64; x64) AppleWebKit/537.36 (KHTML, like Gecko) Chrome/92.0.4515.159 Safari/537.36",WebKit,Chrome,92.0.4515.159,Windows,10.0,5f461dd6c139dd6b46c7596cbd57cd79
230,1,"""","""","""","""","""",sampler,86,276129,0.0-6.0-80.0,725,img/Cobalt.png,"""","""","""",false,-1,4.905080973324228,5,"""","""","""","2021-08-17 18:04:32",24.86.0.113,"Mozilla/5.0 (Windows NT 10.0; Win64; x64) AppleWebKit/537.36 (KHTML, like Gecko) Chrome/92.0.4515.159 Safari/537.36",WebKit,Chrome,92.0.4515.159,Windows,10.0,5f461dd6c139dd6b46c7596cbd57cd79
230,1,"""","""","""","""","""",sampler,87,276852,0.0-6.0-81.0,317,img/Cobalt.png,"""","""","""",false,-1,-6.937615106202022,5,"""","""","""","2021-08-17 18:04:32",24.86.0.113,"Mozilla/5.0 (Windows NT 10.0; Win64; x64) AppleWebKit/537.36 (KHTML, like Gecko) Chrome/92.0.4515.159 Safari/537.36",WebKit,Chrome,92.0.4515.159,Windows,10.0,5f461dd6c139dd6b46c7596cbd57cd79
230,1,"""","""","""","""","""",sampler,88,277962,0.0-6.0-82.0,697,img/Cobalt.png,"""","""","""",false,-1,4.7435056785917995,5,"""","""","""","2021-08-17 18:04:32",24.86.0.113,"Mozilla/5.0 (Windows NT 10.0; Win64; x64) AppleWebKit/537.36 (KHTML, like Gecko) Chrome/92.0.4515.159 Safari/537.36",WebKit,Chrome,92.0.4515.159,Windows,10.0,5f461dd6c139dd6b46c7596cbd57cd79
230,1,"""","""","""","""","""",sampler,89,278563,0.0-6.0-83.0,194,img/Cobalt.png,"""","""","""",false,-1,0.364529855296289,5,"""","""","""","2021-08-17 18:04:32",24.86.0.113,"Mozilla/5.0 (Windows NT 10.0; Win64; x64) AppleWebKit/537.36 (KHTML, like Gecko) Chrome/92.0.4515.159 Safari/537.36",WebKit,Chrome,92.0.4515.159,Windows,10.0,5f461dd6c139dd6b46c7596cbd57cd79
230,1,"""","""","""","""","""",sampler,90,279138,0.0-6.0-84.0,171,img/Cobalt.png,"""","""","""",false,-1,3.2150113400788527,5,"""","""","""","2021-08-17 18:04:32",24.86.0.113,"Mozilla/5.0 (Windows NT 10.0; Win64; x64) AppleWebKit/537.36 (KHTML, like Gecko) Chrome/92.0.4515.159 Safari/537.36",WebKit,Chrome,92.0.4515.159,Windows,10.0,5f461dd6c139dd6b46c7596cbd57cd79
230,1,"""","""","""","""","""",sampler,91,279717,0.0-6.0-85.0,171,img/Cobalt.png,"""","""","""",false,-1,5.513378759307481,5,"""","""","""","2021-08-17 18:04:32",24.86.0.113,"Mozilla/5.0 (Windows NT 10.0; Win64; x64) AppleWebKit/537.36 (KHTML, like Gecko) Chrome/92.0.4515.159 Safari/537.36",WebKit,Chrome,92.0.4515.159,Windows,10.0,5f461dd6c139dd6b46c7596cbd57cd79
230,1,"""","""","""","""","""",sampler,92,280270,0.0-6.0-86.0,141,img/Cobalt.png,"""","""","""",false,-1,12.244657612152267,5,"""","""","""","2021-08-17 18:04:32",24.86.0.113,"Mozilla/5.0 (Windows NT 10.0; Win64; x64) AppleWebKit/537.36 (KHTML, like Gecko) Chrome/92.0.4515.159 Safari/537.36",WebKit,Chrome,92.0.4515.159,Windows,10.0,5f461dd6c139dd6b46c7596cbd57cd79
230,1,"""","""","""","""","""",sampler,93,280825,0.0-6.0-87.0,151,img/Cobalt.png,"""","""","""",false,-1,8.857514043677538,5,"""","""","""","2021-08-17 18:04:32",24.86.0.113,"Mozilla/5.0 (Windows NT 10.0; Win64; x64) AppleWebKit/537.36 (KHTML, like Gecko) Chrome/92.0.4515.159 Safari/537.36",WebKit,Chrome,92.0.4515.159,Windows,10.0,5f461dd6c139dd6b46c7596cbd57cd79
230,1,"""","""","""","""","""",sampler,94,281381,0.0-6.0-88.0,148,img/Cobalt.png,"""","""","""",false,-1,-2.2000049050203696,5,"""","""","""","2021-08-17 18:04:32",24.86.0.113,"Mozilla/5.0 (Windows NT 10.0; Win64; x64) AppleWebKit/537.36 (KHTML, like Gecko) Chrome/92.0.4515.159 Safari/537.36",WebKit,Chrome,92.0.4515.159,Windows,10.0,5f461dd6c139dd6b46c7596cbd57cd79
230,1,"""","""","""","""","""",sampler,95,282300,0.0-6.0-89.0,512,img/Cobalt.png,"""","""","""",false,-1,5.201954759127462,5,"""","""","""","2021-08-17 18:04:32",24.86.0.113,"Mozilla/5.0 (Windows NT 10.0; Win64; x64) AppleWebKit/537.36 (KHTML, like Gecko) Chrome/92.0.4515.159 Safari/537.36",WebKit,Chrome,92.0.4515.159,Windows,10.0,5f461dd6c139dd6b46c7596cbd57cd79
230,1,"""","""","""","""","""",sampler,96,282854,0.0-6.0-90.0,142,img/Cobalt.png,"""","""","""",false,-1,7.358797251537096,5,"""","""","""","2021-08-17 18:04:32",24.86.0.113,"Mozilla/5.0 (Windows NT 10.0; Win64; x64) AppleWebKit/537.36 (KHTML, like Gecko) Chrome/92.0.4515.159 Safari/537.36",WebKit,Chrome,92.0.4515.159,Windows,10.0,5f461dd6c139dd6b46c7596cbd57cd79
230,1,"""","""","""","""","""",sampler,97,283361,0.0-6.0-91.0,99,img/Cobalt.png,"""","""","""",false,-1,11.478130557493564,5,"""","""","""","2021-08-17 18:04:32",24.86.0.113,"Mozilla/5.0 (Windows NT 10.0; Win64; x64) AppleWebKit/537.36 (KHTML, like Gecko) Chrome/92.0.4515.159 Safari/537.36",WebKit,Chrome,92.0.4515.159,Windows,10.0,5f461dd6c139dd6b46c7596cbd57cd79
230,1,"""","""","""","""","""",sampler,98,283852,0.0-6.0-92.0,84,img/Cobalt.png,"""","""","""",false,-1,4.863324628905686,5,"""","""","""","2021-08-17 18:04:32",24.86.0.113,"Mozilla/5.0 (Windows NT 10.0; Win64; x64) AppleWebKit/537.36 (KHTML, like Gecko) Chrome/92.0.4515.159 Safari/537.36",WebKit,Chrome,92.0.4515.159,Windows,10.0,5f461dd6c139dd6b46c7596cbd57cd79
230,1,"""","""","""","""","""",sampler,99,284330,0.0-6.0-93.0,60,img/Cobalt.png,"""","""","""",false,-1,7.074664438326199,5,"""","""","""","2021-08-17 18:04:32",24.86.0.113,"Mozilla/5.0 (Windows NT 10.0; Win64; x64) AppleWebKit/537.36 (KHTML, like Gecko) Chrome/92.0.4515.159 Safari/537.36",WebKit,Chrome,92.0.4515.159,Windows,10.0,5f461dd6c139dd6b46c7596cbd57cd79
230,1,"""","""","""","""","""",sampler,100,284797,0.0-6.0-94.0,60,img/Cobalt.png,"""","""","""",false,-1,7.9792661314177735,5,"""","""","""","2021-08-17 18:04:32",24.86.0.113,"Mozilla/5.0 (Windows NT 10.0; Win64; x64) AppleWebKit/537.36 (KHTML, like Gecko) Chrome/92.0.4515.159 Safari/537.36",WebKit,Chrome,92.0.4515.159,Windows,10.0,5f461dd6c139dd6b46c7596cbd57cd79
230,1,"""","""","""","""","""",sampler,101,285365,0.0-6.0-95.0,161,img/Cobalt.png,"""","""","""",false,-1,9.117887474397511,5,"""","""","""","2021-08-17 18:04:32",24.86.0.113,"Mozilla/5.0 (Windows NT 10.0; Win64; x64) AppleWebKit/537.36 (KHTML, like Gecko) Chrome/92.0.4515.159 Safari/537.36",WebKit,Chrome,92.0.4515.159,Windows,10.0,5f461dd6c139dd6b46c7596cbd57cd79
230,1,"""","""","""","""","""",sampler,102,285840,0.0-6.0-96.0,64,img/Cobalt.png,"""","""","""",false,-1,8.515700753652077,5,"""","""","""","2021-08-17 18:04:32",24.86.0.113,"Mozilla/5.0 (Windows NT 10.0; Win64; x64) AppleWebKit/537.36 (KHTML, like Gecko) Chrome/92.0.4515.159 Safari/537.36",WebKit,Chrome,92.0.4515.159,Windows,10.0,5f461dd6c139dd6b46c7596cbd57cd79
230,1,"""","""","""","""","""",sampler,103,286319,0.0-6.0-97.0,73,img/Cobalt.png,"""","""","""",false,-1,0.28030945302209265,5,"""","""","""","2021-08-17 18:04:32",24.86.0.113,"Mozilla/5.0 (Windows NT 10.0; Win64; x64) AppleWebKit/537.36 (KHTML, like Gecko) Chrome/92.0.4515.159 Safari/537.36",WebKit,Chrome,92.0.4515.159,Windows,10.0,5f461dd6c139dd6b46c7596cbd57cd79
230,1,"""","""","""","""","""",sampler,104,286812,0.0-6.0-98.0,90,img/Cobalt.png,"""","""","""",false,-1,0.7681110341173305,5,"""","""","""","2021-08-17 18:04:32",24.86.0.113,"Mozilla/5.0 (Windows NT 10.0; Win64; x64) AppleWebKit/537.36 (KHTML, like Gecko) Chrome/92.0.4515.159 Safari/537.36",WebKit,Chrome,92.0.4515.159,Windows,10.0,5f461dd6c139dd6b46c7596cbd57cd79
230,1,"""","""","""","""","""",sampler,105,287292,0.0-6.0-99.0,76,img/Cobalt.png,"""","""","""",false,-1,-0.4407246372992555,5,"""","""","""","2021-08-17 18:04:32",24.86.0.113,"Mozilla/5.0 (Windows NT 10.0; Win64; x64) AppleWebKit/537.36 (KHTML, like Gecko) Chrome/92.0.4515.159 Safari/537.36",WebKit,Chrome,92.0.4515.159,Windows,10.0,5f461dd6c139dd6b46c7596cbd57cd79
230,1,"""","""","""","""","""",sampler,106,296856,0.0-6.0-100.0,9153,img/Cobalt.png,"""","""","""",false,-1,3.827864491186693,5,"""","""","""","2021-08-17 18:04:32",24.86.0.113,"Mozilla/5.0 (Windows NT 10.0; Win64; x64) AppleWebKit/537.36 (KHTML, like Gecko) Chrome/92.0.4515.159 Safari/537.36",WebKit,Chrome,92.0.4515.159,Windows,10.0,5f461dd6c139dd6b46c7596cbd57cd79
230,1,"""","""","""","""","""",sampler,107,296857,0.0-6.0-101.0,"""","""","""","""","""","""","""","""","""","""","""","""","2021-08-17 18:04:32",24.86.0.113,"Mozilla/5.0 (Windows NT 10.0; Win64; x64) AppleWebKit/537.36 (KHTML, like Gecko) Chrome/92.0.4515.159 Safari/537.36",WebKit,Chrome,92.0.4515.159,Windows,10.0,5f461dd6c139dd6b46c7596cbd57cd79
230,1,"""","""","""","""","""",sampler,108,296857,0.0-6.0-102.0,"""","""","""","""","""","""","""","""","""","""","""","""","2021-08-17 18:04:32",24.86.0.113,"Mozilla/5.0 (Windows NT 10.0; Win64; x64) AppleWebKit/537.36 (KHTML, like Gecko) Chrome/92.0.4515.159 Safari/537.36",WebKit,Chrome,92.0.4515.159,Windows,10.0,5f461dd6c139dd6b46c7596cbd57cd79
230,1,"""","""","""","""","""",sampler,109,296857,0.0-6.0-103.0,"""","""","""","""","""","""","""","""","""","""","""","""","2021-08-17 18:04:32",24.86.0.113,"Mozilla/5.0 (Windows NT 10.0; Win64; x64) AppleWebKit/537.36 (KHTML, like Gecko) Chrome/92.0.4515.159 Safari/537.36",WebKit,Chrome,92.0.4515.159,Windows,10.0,5f461dd6c139dd6b46c7596cbd57cd79
230,1,"""","""","""","""","""",sampler,110,296857,0.0-6.0-104.0,"""","""","""","""","""","""","""","""","""","""","""","""","2021-08-17 18:04:32",24.86.0.113,"Mozilla/5.0 (Windows NT 10.0; Win64; x64) AppleWebKit/537.36 (KHTML, like Gecko) Chrome/92.0.4515.159 Safari/537.36",WebKit,Chrome,92.0.4515.159,Windows,10.0,5f461dd6c139dd6b46c7596cbd57cd79
230,1,"""","""","""","""","""",sampler,111,296857,0.0-6.0-105.0,"""","""","""","""","""","""","""","""","""","""","""","""","2021-08-17 18:04:32",24.86.0.113,"Mozilla/5.0 (Windows NT 10.0; Win64; x64) AppleWebKit/537.36 (KHTML, like Gecko) Chrome/92.0.4515.159 Safari/537.36",WebKit,Chrome,92.0.4515.159,Windows,10.0,5f461dd6c139dd6b46c7596cbd57cd79
230,1,"""","""","""","""","""",sampler,112,296858,0.0-6.0-106.0,"""","""","""","""","""","""","""","""","""","""","""","""","2021-08-17 18:04:32",24.86.0.113,"Mozilla/5.0 (Windows NT 10.0; Win64; x64) AppleWebKit/537.36 (KHTML, like Gecko) Chrome/92.0.4515.159 Safari/537.36",WebKit,Chrome,92.0.4515.159,Windows,10.0,5f461dd6c139dd6b46c7596cbd57cd79
230,1,"""","""","""","""","""",sampler,113,296858,0.0-6.0-107.0,"""","""","""","""","""","""","""","""","""","""","""","""","2021-08-17 18:04:32",24.86.0.113,"Mozilla/5.0 (Windows NT 10.0; Win64; x64) AppleWebKit/537.36 (KHTML, like Gecko) Chrome/92.0.4515.159 Safari/537.36",WebKit,Chrome,92.0.4515.159,Windows,10.0,5f461dd6c139dd6b46c7596cbd57cd79
230,1,"""","""","""","""","""",sampler,114,296858,0.0-6.0-108.0,"""","""","""","""","""","""","""","""","""","""","""","""","2021-08-17 18:04:32",24.86.0.113,"Mozilla/5.0 (Windows NT 10.0; Win64; x64) AppleWebKit/537.36 (KHTML, like Gecko) Chrome/92.0.4515.159 Safari/537.36",WebKit,Chrome,92.0.4515.159,Windows,10.0,5f461dd6c139dd6b46c7596cbd57cd79
230,1,"""","""","""","""","""",sampler,115,296858,0.0-6.0-109.0,"""","""","""","""","""","""","""","""","""","""","""","""","2021-08-17 18:04:32",24.86.0.113,"Mozilla/5.0 (Windows NT 10.0; Win64; x64) AppleWebKit/537.36 (KHTML, like Gecko) Chrome/92.0.4515.159 Safari/537.36",WebKit,Chrome,92.0.4515.159,Windows,10.0,5f461dd6c139dd6b46c7596cbd57cd79
230,1,"""","""","""","""","""",sampler,116,296859,0.0-6.0-110.0,"""","""","""","""","""","""","""","""","""","""","""","""","2021-08-17 18:04:32",24.86.0.113,"Mozilla/5.0 (Windows NT 10.0; Win64; x64) AppleWebKit/537.36 (KHTML, like Gecko) Chrome/92.0.4515.159 Safari/537.36",WebKit,Chrome,92.0.4515.159,Windows,10.0,5f461dd6c139dd6b46c7596cbd57cd79
230,1,"""","""","""","""","""",sampler,117,296859,0.0-6.0-111.0,"""","""","""","""","""","""","""","""","""","""","""","""","2021-08-17 18:04:32",24.86.0.113,"Mozilla/5.0 (Windows NT 10.0; Win64; x64) AppleWebKit/537.36 (KHTML, like Gecko) Chrome/92.0.4515.159 Safari/537.36",WebKit,Chrome,92.0.4515.159,Windows,10.0,5f461dd6c139dd6b46c7596cbd57cd79
230,1,"""","""","""","""","""",sampler,118,296859,0.0-6.0-112.0,"""","""","""","""","""","""","""","""","""","""","""","""","2021-08-17 18:04:32",24.86.0.113,"Mozilla/5.0 (Windows NT 10.0; Win64; x64) AppleWebKit/537.36 (KHTML, like Gecko) Chrome/92.0.4515.159 Safari/537.36",WebKit,Chrome,92.0.4515.159,Windows,10.0,5f461dd6c139dd6b46c7596cbd57cd79
230,1,"""","""","""","""","""",sampler,119,296859,0.0-6.0-113.0,"""","""","""","""","""","""","""","""","""","""","""","""","2021-08-17 18:04:32",24.86.0.113,"Mozilla/5.0 (Windows NT 10.0; Win64; x64) AppleWebKit/537.36 (KHTML, like Gecko) Chrome/92.0.4515.159 Safari/537.36",WebKit,Chrome,92.0.4515.159,Windows,10.0,5f461dd6c139dd6b46c7596cbd57cd79
230,1,"""","""","""","""","""",sampler,120,296859,0.0-6.0-114.0,"""","""","""","""","""","""","""","""","""","""","""","""","2021-08-17 18:04:32",24.86.0.113,"Mozilla/5.0 (Windows NT 10.0; Win64; x64) AppleWebKit/537.36 (KHTML, like Gecko) Chrome/92.0.4515.159 Safari/537.36",WebKit,Chrome,92.0.4515.159,Windows,10.0,5f461dd6c139dd6b46c7596cbd57cd79
230,1,"""","""","""","""","""",sampler,121,296859,0.0-6.0-115.0,"""","""","""","""","""","""","""","""","""","""","""","""","2021-08-17 18:04:32",24.86.0.113,"Mozilla/5.0 (Windows NT 10.0; Win64; x64) AppleWebKit/537.36 (KHTML, like Gecko) Chrome/92.0.4515.159 Safari/537.36",WebKit,Chrome,92.0.4515.159,Windows,10.0,5f461dd6c139dd6b46c7596cbd57cd79
230,1,"""","""","""","""","""",sampler,122,296859,0.0-6.0-116.0,"""","""","""","""","""","""","""","""","""","""","""","""","2021-08-17 18:04:32",24.86.0.113,"Mozilla/5.0 (Windows NT 10.0; Win64; x64) AppleWebKit/537.36 (KHTML, like Gecko) Chrome/92.0.4515.159 Safari/537.36",WebKit,Chrome,92.0.4515.159,Windows,10.0,5f461dd6c139dd6b46c7596cbd57cd79
230,1,"""","""","""","""","""",sampler,123,296859,0.0-6.0-117.0,"""","""","""","""","""","""","""","""","""","""","""","""","2021-08-17 18:04:32",24.86.0.113,"Mozilla/5.0 (Windows NT 10.0; Win64; x64) AppleWebKit/537.36 (KHTML, like Gecko) Chrome/92.0.4515.159 Safari/537.36",WebKit,Chrome,92.0.4515.159,Windows,10.0,5f461dd6c139dd6b46c7596cbd57cd79
230,1,"""","""","""","""","""",sampler,124,296859,0.0-6.0-118.0,"""","""","""","""","""","""","""","""","""","""","""","""","2021-08-17 18:04:32",24.86.0.113,"Mozilla/5.0 (Windows NT 10.0; Win64; x64) AppleWebKit/537.36 (KHTML, like Gecko) Chrome/92.0.4515.159 Safari/537.36",WebKit,Chrome,92.0.4515.159,Windows,10.0,5f461dd6c139dd6b46c7596cbd57cd79
230,1,"""","""","""","""","""",sampler,125,296859,0.0-6.0-119.0,"""","""","""","""","""","""","""","""","""","""","""","""","2021-08-17 18:04:32",24.86.0.113,"Mozilla/5.0 (Windows NT 10.0; Win64; x64) AppleWebKit/537.36 (KHTML, like Gecko) Chrome/92.0.4515.159 Safari/537.36",WebKit,Chrome,92.0.4515.159,Windows,10.0,5f461dd6c139dd6b46c7596cbd57cd79
230,1,"""","""","""","""","""",sampler,126,296859,0.0-6.0-120.0,"""","""","""","""","""","""","""","""","""","""","""","""","2021-08-17 18:04:32",24.86.0.113,"Mozilla/5.0 (Windows NT 10.0; Win64; x64) AppleWebKit/537.36 (KHTML, like Gecko) Chrome/92.0.4515.159 Safari/537.36",WebKit,Chrome,92.0.4515.159,Windows,10.0,5f461dd6c139dd6b46c7596cbd57cd79
230,1,"""","""","""","""","""",sampler,127,296860,0.0-6.0-121.0,"""","""","""","""","""","""","""","""","""","""","""","""","2021-08-17 18:04:32",24.86.0.113,"Mozilla/5.0 (Windows NT 10.0; Win64; x64) AppleWebKit/537.36 (KHTML, like Gecko) Chrome/92.0.4515.159 Safari/537.36",WebKit,Chrome,92.0.4515.159,Windows,10.0,5f461dd6c139dd6b46c7596cbd57cd79
230,1,"""","""","""","""","""",sampler,128,296860,0.0-6.0-122.0,"""","""","""","""","""","""","""","""","""","""","""","""","2021-08-17 18:04:32",24.86.0.113,"Mozilla/5.0 (Windows NT 10.0; Win64; x64) AppleWebKit/537.36 (KHTML, like Gecko) Chrome/92.0.4515.159 Safari/537.36",WebKit,Chrome,92.0.4515.159,Windows,10.0,5f461dd6c139dd6b46c7596cbd57cd79
230,1,"""","""","""","""","""",sampler,129,296860,0.0-6.0-123.0,"""","""","""","""","""","""","""","""","""","""","""","""","2021-08-17 18:04:32",24.86.0.113,"Mozilla/5.0 (Windows NT 10.0; Win64; x64) AppleWebKit/537.36 (KHTML, like Gecko) Chrome/92.0.4515.159 Safari/537.36",WebKit,Chrome,92.0.4515.159,Windows,10.0,5f461dd6c139dd6b46c7596cbd57cd79
230,1,"""","""","""","""","""",sampler,130,296860,0.0-6.0-124.0,"""","""","""","""","""","""","""","""","""","""","""","""","2021-08-17 18:04:32",24.86.0.113,"Mozilla/5.0 (Windows NT 10.0; Win64; x64) AppleWebKit/537.36 (KHTML, like Gecko) Chrome/92.0.4515.159 Safari/537.36",WebKit,Chrome,92.0.4515.159,Windows,10.0,5f461dd6c139dd6b46c7596cbd57cd79
230,1,"""","""","""","""","""",sampler,131,296860,0.0-6.0-125.0,"""","""","""","""","""","""","""","""","""","""","""","""","2021-08-17 18:04:32",24.86.0.113,"Mozilla/5.0 (Windows NT 10.0; Win64; x64) AppleWebKit/537.36 (KHTML, like Gecko) Chrome/92.0.4515.159 Safari/537.36",WebKit,Chrome,92.0.4515.159,Windows,10.0,5f461dd6c139dd6b46c7596cbd57cd79
230,1,"""","""","""","""","""",sampler,132,296860,0.0-6.0-126.0,"""","""","""","""","""","""","""","""","""","""","""","""","2021-08-17 18:04:32",24.86.0.113,"Mozilla/5.0 (Windows NT 10.0; Win64; x64) AppleWebKit/537.36 (KHTML, like Gecko) Chrome/92.0.4515.159 Safari/537.36",WebKit,Chrome,92.0.4515.159,Windows,10.0,5f461dd6c139dd6b46c7596cbd57cd79
230,1,"""","""","""","""","""",sampler,133,296860,0.0-6.0-127.0,"""","""","""","""","""","""","""","""","""","""","""","""","2021-08-17 18:04:32",24.86.0.113,"Mozilla/5.0 (Windows NT 10.0; Win64; x64) AppleWebKit/537.36 (KHTML, like Gecko) Chrome/92.0.4515.159 Safari/537.36",WebKit,Chrome,92.0.4515.159,Windows,10.0,5f461dd6c139dd6b46c7596cbd57cd79
230,1,"""","""","""","""","""",sampler,134,296860,0.0-6.0-128.0,"""","""","""","""","""","""","""","""","""","""","""","""","2021-08-17 18:04:32",24.86.0.113,"Mozilla/5.0 (Windows NT 10.0; Win64; x64) AppleWebKit/537.36 (KHTML, like Gecko) Chrome/92.0.4515.159 Safari/537.36",WebKit,Chrome,92.0.4515.159,Windows,10.0,5f461dd6c139dd6b46c7596cbd57cd79
230,1,"""","""","""","""","""",sampler,135,296860,0.0-6.0-129.0,"""","""","""","""","""","""","""","""","""","""","""","""","2021-08-17 18:04:32",24.86.0.113,"Mozilla/5.0 (Windows NT 10.0; Win64; x64) AppleWebKit/537.36 (KHTML, like Gecko) Chrome/92.0.4515.159 Safari/537.36",WebKit,Chrome,92.0.4515.159,Windows,10.0,5f461dd6c139dd6b46c7596cbd57cd79
230,1,"""","""","""","""","""",sampler,136,296860,0.0-6.0-130.0,"""","""","""","""","""","""","""","""","""","""","""","""","2021-08-17 18:04:32",24.86.0.113,"Mozilla/5.0 (Windows NT 10.0; Win64; x64) AppleWebKit/537.36 (KHTML, like Gecko) Chrome/92.0.4515.159 Safari/537.36",WebKit,Chrome,92.0.4515.159,Windows,10.0,5f461dd6c139dd6b46c7596cbd57cd79
230,1,"""","""","""","""","""",sampler,137,296861,0.0-6.0-131.0,"""","""","""","""","""","""","""","""","""","""","""","""","2021-08-17 18:04:32",24.86.0.113,"Mozilla/5.0 (Windows NT 10.0; Win64; x64) AppleWebKit/537.36 (KHTML, like Gecko) Chrome/92.0.4515.159 Safari/537.36",WebKit,Chrome,92.0.4515.159,Windows,10.0,5f461dd6c139dd6b46c7596cbd57cd79
230,1,"""","""","""","""","""",sampler,138,296861,0.0-6.0-132.0,"""","""","""","""","""","""","""","""","""","""","""","""","2021-08-17 18:04:32",24.86.0.113,"Mozilla/5.0 (Windows NT 10.0; Win64; x64) AppleWebKit/537.36 (KHTML, like Gecko) Chrome/92.0.4515.159 Safari/537.36",WebKit,Chrome,92.0.4515.159,Windows,10.0,5f461dd6c139dd6b46c7596cbd57cd79
230,1,"""","""","""","""","""",sampler,139,296861,0.0-6.0-133.0,"""","""","""","""","""","""","""","""","""","""","""","""","2021-08-17 18:04:32",24.86.0.113,"Mozilla/5.0 (Windows NT 10.0; Win64; x64) AppleWebKit/537.36 (KHTML, like Gecko) Chrome/92.0.4515.159 Safari/537.36",WebKit,Chrome,92.0.4515.159,Windows,10.0,5f461dd6c139dd6b46c7596cbd57cd79
230,1,"""","""","""","""","""",sampler,140,296861,0.0-6.0-134.0,"""","""","""","""","""","""","""","""","""","""","""","""","2021-08-17 18:04:32",24.86.0.113,"Mozilla/5.0 (Windows NT 10.0; Win64; x64) AppleWebKit/537.36 (KHTML, like Gecko) Chrome/92.0.4515.159 Safari/537.36",WebKit,Chrome,92.0.4515.159,Windows,10.0,5f461dd6c139dd6b46c7596cbd57cd79
230,1,"""","""","""","""","""",sampler,141,296861,0.0-6.0-135.0,"""","""","""","""","""","""","""","""","""","""","""","""","2021-08-17 18:04:32",24.86.0.113,"Mozilla/5.0 (Windows NT 10.0; Win64; x64) AppleWebKit/537.36 (KHTML, like Gecko) Chrome/92.0.4515.159 Safari/537.36",WebKit,Chrome,92.0.4515.159,Windows,10.0,5f461dd6c139dd6b46c7596cbd57cd79
230,1,"""","""","""","""","""",sampler,142,296861,0.0-6.0-136.0,"""","""","""","""","""","""","""","""","""","""","""","""","2021-08-17 18:04:32",24.86.0.113,"Mozilla/5.0 (Windows NT 10.0; Win64; x64) AppleWebKit/537.36 (KHTML, like Gecko) Chrome/92.0.4515.159 Safari/537.36",WebKit,Chrome,92.0.4515.159,Windows,10.0,5f461dd6c139dd6b46c7596cbd57cd79
230,1,"""","""","""","""","""",sampler,143,296861,0.0-6.0-137.0,"""","""","""","""","""","""","""","""","""","""","""","""","2021-08-17 18:04:32",24.86.0.113,"Mozilla/5.0 (Windows NT 10.0; Win64; x64) AppleWebKit/537.36 (KHTML, like Gecko) Chrome/92.0.4515.159 Safari/537.36",WebKit,Chrome,92.0.4515.159,Windows,10.0,5f461dd6c139dd6b46c7596cbd57cd79
230,1,"""","""","""","""","""",sampler,144,296861,0.0-6.0-138.0,"""","""","""","""","""","""","""","""","""","""","""","""","2021-08-17 18:04:32",24.86.0.113,"Mozilla/5.0 (Windows NT 10.0; Win64; x64) AppleWebKit/537.36 (KHTML, like Gecko) Chrome/92.0.4515.159 Safari/537.36",WebKit,Chrome,92.0.4515.159,Windows,10.0,5f461dd6c139dd6b46c7596cbd57cd79
230,1,"""","""","""","""","""",sampler,145,296861,0.0-6.0-139.0,"""","""","""","""","""","""","""","""","""","""","""","""","2021-08-17 18:04:32",24.86.0.113,"Mozilla/5.0 (Windows NT 10.0; Win64; x64) AppleWebKit/537.36 (KHTML, like Gecko) Chrome/92.0.4515.159 Safari/537.36",WebKit,Chrome,92.0.4515.159,Windows,10.0,5f461dd6c139dd6b46c7596cbd57cd79
230,1,"""","""","""","""","""",sampler,146,296861,0.0-6.0-140.0,"""","""","""","""","""","""","""","""","""","""","""","""","2021-08-17 18:04:32",24.86.0.113,"Mozilla/5.0 (Windows NT 10.0; Win64; x64) AppleWebKit/537.36 (KHTML, like Gecko) Chrome/92.0.4515.159 Safari/537.36",WebKit,Chrome,92.0.4515.159,Windows,10.0,5f461dd6c139dd6b46c7596cbd57cd79
230,1,"""","""","""","""","""",sampler,147,296861,0.0-6.0-141.0,"""","""","""","""","""","""","""","""","""","""","""","""","2021-08-17 18:04:32",24.86.0.113,"Mozilla/5.0 (Windows NT 10.0; Win64; x64) AppleWebKit/537.36 (KHTML, like Gecko) Chrome/92.0.4515.159 Safari/537.36",WebKit,Chrome,92.0.4515.159,Windows,10.0,5f461dd6c139dd6b46c7596cbd57cd79
230,1,"""","""","""","""","""",sampler,148,296862,0.0-6.0-142.0,"""","""","""","""","""","""","""","""","""","""","""","""","2021-08-17 18:04:32",24.86.0.113,"Mozilla/5.0 (Windows NT 10.0; Win64; x64) AppleWebKit/537.36 (KHTML, like Gecko) Chrome/92.0.4515.159 Safari/537.36",WebKit,Chrome,92.0.4515.159,Windows,10.0,5f461dd6c139dd6b46c7596cbd57cd79
230,1,"""","""","""","""","""",sampler,149,296862,0.0-6.0-143.0,"""","""","""","""","""","""","""","""","""","""","""","""","2021-08-17 18:04:32",24.86.0.113,"Mozilla/5.0 (Windows NT 10.0; Win64; x64) AppleWebKit/537.36 (KHTML, like Gecko) Chrome/92.0.4515.159 Safari/537.36",WebKit,Chrome,92.0.4515.159,Windows,10.0,5f461dd6c139dd6b46c7596cbd57cd79
230,1,"""","""","""","""","""",sampler,150,296862,0.0-6.0-144.0,"""","""","""","""","""","""","""","""","""","""","""","""","2021-08-17 18:04:32",24.86.0.113,"Mozilla/5.0 (Windows NT 10.0; Win64; x64) AppleWebKit/537.36 (KHTML, like Gecko) Chrome/92.0.4515.159 Safari/537.36",WebKit,Chrome,92.0.4515.159,Windows,10.0,5f461dd6c139dd6b46c7596cbd57cd79
230,1,"""","""","""","""","""",sampler,151,296862,0.0-6.0-145.0,"""","""","""","""","""","""","""","""","""","""","""","""","2021-08-17 18:04:32",24.86.0.113,"Mozilla/5.0 (Windows NT 10.0; Win64; x64) AppleWebKit/537.36 (KHTML, like Gecko) Chrome/92.0.4515.159 Safari/537.36",WebKit,Chrome,92.0.4515.159,Windows,10.0,5f461dd6c139dd6b46c7596cbd57cd79
230,1,"""","""","""","""","""",sampler,152,296862,0.0-6.0-146.0,"""","""","""","""","""","""","""","""","""","""","""","""","2021-08-17 18:04:32",24.86.0.113,"Mozilla/5.0 (Windows NT 10.0; Win64; x64) AppleWebKit/537.36 (KHTML, like Gecko) Chrome/92.0.4515.159 Safari/537.36",WebKit,Chrome,92.0.4515.159,Windows,10.0,5f461dd6c139dd6b46c7596cbd57cd79
230,1,"""","""","""","""","""",sampler,153,296862,0.0-6.0-147.0,"""","""","""","""","""","""","""","""","""","""","""","""","2021-08-17 18:04:32",24.86.0.113,"Mozilla/5.0 (Windows NT 10.0; Win64; x64) AppleWebKit/537.36 (KHTML, like Gecko) Chrome/92.0.4515.159 Safari/537.36",WebKit,Chrome,92.0.4515.159,Windows,10.0,5f461dd6c139dd6b46c7596cbd57cd79
230,1,"""","""","""","""","""",sampler,154,296862,0.0-6.0-148.0,"""","""","""","""","""","""","""","""","""","""","""","""","2021-08-17 18:04:32",24.86.0.113,"Mozilla/5.0 (Windows NT 10.0; Win64; x64) AppleWebKit/537.36 (KHTML, like Gecko) Chrome/92.0.4515.159 Safari/537.36",WebKit,Chrome,92.0.4515.159,Windows,10.0,5f461dd6c139dd6b46c7596cbd57cd79
230,1,"""","""","""","""","""",sampler,155,296862,0.0-6.0-149.0,"""","""","""","""","""","""","""","""","""","""","""","""","2021-08-17 18:04:32",24.86.0.113,"Mozilla/5.0 (Windows NT 10.0; Win64; x64) AppleWebKit/537.36 (KHTML, like Gecko) Chrome/92.0.4515.159 Safari/537.36",WebKit,Chrome,92.0.4515.159,Windows,10.0,5f461dd6c139dd6b46c7596cbd57cd79
230,1,"""","""","""","""","""",sampler,156,296862,0.0-6.0-150.0,"""","""","""","""","""","""","""","""","""","""","""","""","2021-08-17 18:04:32",24.86.0.113,"Mozilla/5.0 (Windows NT 10.0; Win64; x64) AppleWebKit/537.36 (KHTML, like Gecko) Chrome/92.0.4515.159 Safari/537.36",WebKit,Chrome,92.0.4515.159,Windows,10.0,5f461dd6c139dd6b46c7596cbd57cd79
230,1,"""","""","""","""","""",sampler,157,296862,0.0-6.0-151.0,"""","""","""","""","""","""","""","""","""","""","""","""","2021-08-17 18:04:32",24.86.0.113,"Mozilla/5.0 (Windows NT 10.0; Win64; x64) AppleWebKit/537.36 (KHTML, like Gecko) Chrome/92.0.4515.159 Safari/537.36",WebKit,Chrome,92.0.4515.159,Windows,10.0,5f461dd6c139dd6b46c7596cbd57cd79
230,1,"""","""","""","""","""",sampler,158,296862,0.0-6.0-152.0,"""","""","""","""","""","""","""","""","""","""","""","""","2021-08-17 18:04:32",24.86.0.113,"Mozilla/5.0 (Windows NT 10.0; Win64; x64) AppleWebKit/537.36 (KHTML, like Gecko) Chrome/92.0.4515.159 Safari/537.36",WebKit,Chrome,92.0.4515.159,Windows,10.0,5f461dd6c139dd6b46c7596cbd57cd79
230,1,"""","""","""","""","""",sampler,159,296863,0.0-6.0-153.0,"""","""","""","""","""","""","""","""","""","""","""","""","2021-08-17 18:04:32",24.86.0.113,"Mozilla/5.0 (Windows NT 10.0; Win64; x64) AppleWebKit/537.36 (KHTML, like Gecko) Chrome/92.0.4515.159 Safari/537.36",WebKit,Chrome,92.0.4515.159,Windows,10.0,5f461dd6c139dd6b46c7596cbd57cd79
230,1,"""","""","""","""","""",sampler,160,296863,0.0-6.0-154.0,"""","""","""","""","""","""","""","""","""","""","""","""","2021-08-17 18:04:32",24.86.0.113,"Mozilla/5.0 (Windows NT 10.0; Win64; x64) AppleWebKit/537.36 (KHTML, like Gecko) Chrome/92.0.4515.159 Safari/537.36",WebKit,Chrome,92.0.4515.159,Windows,10.0,5f461dd6c139dd6b46c7596cbd57cd79
230,1,"""","""","""","""","""",sampler,161,296863,0.0-6.0-155.0,"""","""","""","""","""","""","""","""","""","""","""","""","2021-08-17 18:04:32",24.86.0.113,"Mozilla/5.0 (Windows NT 10.0; Win64; x64) AppleWebKit/537.36 (KHTML, like Gecko) Chrome/92.0.4515.159 Safari/537.36",WebKit,Chrome,92.0.4515.159,Windows,10.0,5f461dd6c139dd6b46c7596cbd57cd79
230,1,"""","""","""","""","""",sampler,162,296863,0.0-6.0-156.0,"""","""","""","""","""","""","""","""","""","""","""","""","2021-08-17 18:04:32",24.86.0.113,"Mozilla/5.0 (Windows NT 10.0; Win64; x64) AppleWebKit/537.36 (KHTML, like Gecko) Chrome/92.0.4515.159 Safari/537.36",WebKit,Chrome,92.0.4515.159,Windows,10.0,5f461dd6c139dd6b46c7596cbd57cd79
230,1,"""","""","""","""","""",sampler,163,296863,0.0-6.0-157.0,"""","""","""","""","""","""","""","""","""","""","""","""","2021-08-17 18:04:32",24.86.0.113,"Mozilla/5.0 (Windows NT 10.0; Win64; x64) AppleWebKit/537.36 (KHTML, like Gecko) Chrome/92.0.4515.159 Safari/537.36",WebKit,Chrome,92.0.4515.159,Windows,10.0,5f461dd6c139dd6b46c7596cbd57cd79
230,1,"""","""","""","""","""",sampler,164,296863,0.0-6.0-158.0,"""","""","""","""","""","""","""","""","""","""","""","""","2021-08-17 18:04:32",24.86.0.113,"Mozilla/5.0 (Windows NT 10.0; Win64; x64) AppleWebKit/537.36 (KHTML, like Gecko) Chrome/92.0.4515.159 Safari/537.36",WebKit,Chrome,92.0.4515.159,Windows,10.0,5f461dd6c139dd6b46c7596cbd57cd79
230,1,"""","""","""","""","""",sampler,165,296863,0.0-6.0-159.0,"""","""","""","""","""","""","""","""","""","""","""","""","2021-08-17 18:04:32",24.86.0.113,"Mozilla/5.0 (Windows NT 10.0; Win64; x64) AppleWebKit/537.36 (KHTML, like Gecko) Chrome/92.0.4515.159 Safari/537.36",WebKit,Chrome,92.0.4515.159,Windows,10.0,5f461dd6c139dd6b46c7596cbd57cd79
230,1,"""","""","""","""","""",sampler,166,296863,0.0-6.0-160.0,"""","""","""","""","""","""","""","""","""","""","""","""","2021-08-17 18:04:32",24.86.0.113,"Mozilla/5.0 (Windows NT 10.0; Win64; x64) AppleWebKit/537.36 (KHTML, like Gecko) Chrome/92.0.4515.159 Safari/537.36",WebKit,Chrome,92.0.4515.159,Windows,10.0,5f461dd6c139dd6b46c7596cbd57cd79
230,1,"""","""","""","""","""",sampler,167,296863,0.0-6.0-161.0,"""","""","""","""","""","""","""","""","""","""","""","""","2021-08-17 18:04:32",24.86.0.113,"Mozilla/5.0 (Windows NT 10.0; Win64; x64) AppleWebKit/537.36 (KHTML, like Gecko) Chrome/92.0.4515.159 Safari/537.36",WebKit,Chrome,92.0.4515.159,Windows,10.0,5f461dd6c139dd6b46c7596cbd57cd79
230,1,"""","""","""","""","""",sampler,168,296863,0.0-6.0-162.0,"""","""","""","""","""","""","""","""","""","""","""","""","2021-08-17 18:04:32",24.86.0.113,"Mozilla/5.0 (Windows NT 10.0; Win64; x64) AppleWebKit/537.36 (KHTML, like Gecko) Chrome/92.0.4515.159 Safari/537.36",WebKit,Chrome,92.0.4515.159,Windows,10.0,5f461dd6c139dd6b46c7596cbd57cd79
230,1,"""","""","""","""","""",sampler,169,296864,0.0-6.0-163.0,"""","""","""","""","""","""","""","""","""","""","""","""","2021-08-17 18:04:32",24.86.0.113,"Mozilla/5.0 (Windows NT 10.0; Win64; x64) AppleWebKit/537.36 (KHTML, like Gecko) Chrome/92.0.4515.159 Safari/537.36",WebKit,Chrome,92.0.4515.159,Windows,10.0,5f461dd6c139dd6b46c7596cbd57cd79
230,1,"""","""","""","""","""",sampler,170,296864,0.0-6.0-164.0,"""","""","""","""","""","""","""","""","""","""","""","""","2021-08-17 18:04:32",24.86.0.113,"Mozilla/5.0 (Windows NT 10.0; Win64; x64) AppleWebKit/537.36 (KHTML, like Gecko) Chrome/92.0.4515.159 Safari/537.36",WebKit,Chrome,92.0.4515.159,Windows,10.0,5f461dd6c139dd6b46c7596cbd57cd79
230,1,"""","""","""","""","""",sampler,171,296864,0.0-6.0-165.0,"""","""","""","""","""","""","""","""","""","""","""","""","2021-08-17 18:04:32",24.86.0.113,"Mozilla/5.0 (Windows NT 10.0; Win64; x64) AppleWebKit/537.36 (KHTML, like Gecko) Chrome/92.0.4515.159 Safari/537.36",WebKit,Chrome,92.0.4515.159,Windows,10.0,5f461dd6c139dd6b46c7596cbd57cd79
230,1,"""","""","""","""","""",sampler,172,296864,0.0-6.0-166.0,"""","""","""","""","""","""","""","""","""","""","""","""","2021-08-17 18:04:32",24.86.0.113,"Mozilla/5.0 (Windows NT 10.0; Win64; x64) AppleWebKit/537.36 (KHTML, like Gecko) Chrome/92.0.4515.159 Safari/537.36",WebKit,Chrome,92.0.4515.159,Windows,10.0,5f461dd6c139dd6b46c7596cbd57cd79
230,1,"""","""","""","""","""",sampler,173,296864,0.0-6.0-167.0,"""","""","""","""","""","""","""","""","""","""","""","""","2021-08-17 18:04:32",24.86.0.113,"Mozilla/5.0 (Windows NT 10.0; Win64; x64) AppleWebKit/537.36 (KHTML, like Gecko) Chrome/92.0.4515.159 Safari/537.36",WebKit,Chrome,92.0.4515.159,Windows,10.0,5f461dd6c139dd6b46c7596cbd57cd79
230,1,"""","""","""","""","""",sampler,174,296864,0.0-6.0-168.0,"""","""","""","""","""","""","""","""","""","""","""","""","2021-08-17 18:04:32",24.86.0.113,"Mozilla/5.0 (Windows NT 10.0; Win64; x64) AppleWebKit/537.36 (KHTML, like Gecko) Chrome/92.0.4515.159 Safari/537.36",WebKit,Chrome,92.0.4515.159,Windows,10.0,5f461dd6c139dd6b46c7596cbd57cd79
230,1,"""","""","""","""","""",sampler,175,296864,0.0-6.0-169.0,"""","""","""","""","""","""","""","""","""","""","""","""","2021-08-17 18:04:32",24.86.0.113,"Mozilla/5.0 (Windows NT 10.0; Win64; x64) AppleWebKit/537.36 (KHTML, like Gecko) Chrome/92.0.4515.159 Safari/537.36",WebKit,Chrome,92.0.4515.159,Windows,10.0,5f461dd6c139dd6b46c7596cbd57cd79
230,1,"""","""","""","""","""",sampler,176,296864,0.0-6.0-170.0,"""","""","""","""","""","""","""","""","""","""","""","""","2021-08-17 18:04:32",24.86.0.113,"Mozilla/5.0 (Windows NT 10.0; Win64; x64) AppleWebKit/537.36 (KHTML, like Gecko) Chrome/92.0.4515.159 Safari/537.36",WebKit,Chrome,92.0.4515.159,Windows,10.0,5f461dd6c139dd6b46c7596cbd57cd79
230,1,"""","""","""","""","""",sampler,177,296864,0.0-6.0-171.0,"""","""","""","""","""","""","""","""","""","""","""","""","2021-08-17 18:04:32",24.86.0.113,"Mozilla/5.0 (Windows NT 10.0; Win64; x64) AppleWebKit/537.36 (KHTML, like Gecko) Chrome/92.0.4515.159 Safari/537.36",WebKit,Chrome,92.0.4515.159,Windows,10.0,5f461dd6c139dd6b46c7596cbd57cd79
230,1,"""","""","""","""","""",sampler,178,296864,0.0-6.0-172.0,"""","""","""","""","""","""","""","""","""","""","""","""","2021-08-17 18:04:32",24.86.0.113,"Mozilla/5.0 (Windows NT 10.0; Win64; x64) AppleWebKit/537.36 (KHTML, like Gecko) Chrome/92.0.4515.159 Safari/537.36",WebKit,Chrome,92.0.4515.159,Windows,10.0,5f461dd6c139dd6b46c7596cbd57cd79
230,1,"""","""","""","""","""",sampler,179,296865,0.0-6.0-173.0,"""","""","""","""","""","""","""","""","""","""","""","""","2021-08-17 18:04:32",24.86.0.113,"Mozilla/5.0 (Windows NT 10.0; Win64; x64) AppleWebKit/537.36 (KHTML, like Gecko) Chrome/92.0.4515.159 Safari/537.36",WebKit,Chrome,92.0.4515.159,Windows,10.0,5f461dd6c139dd6b46c7596cbd57cd79
230,1,"""","""","""","""","""",sampler,180,296865,0.0-6.0-174.0,"""","""","""","""","""","""","""","""","""","""","""","""","2021-08-17 18:04:32",24.86.0.113,"Mozilla/5.0 (Windows NT 10.0; Win64; x64) AppleWebKit/537.36 (KHTML, like Gecko) Chrome/92.0.4515.159 Safari/537.36",WebKit,Chrome,92.0.4515.159,Windows,10.0,5f461dd6c139dd6b46c7596cbd57cd79
230,1,"""","""","""","""","""",sampler,181,296865,0.0-6.0-175.0,"""","""","""","""","""","""","""","""","""","""","""","""","2021-08-17 18:04:32",24.86.0.113,"Mozilla/5.0 (Windows NT 10.0; Win64; x64) AppleWebKit/537.36 (KHTML, like Gecko) Chrome/92.0.4515.159 Safari/537.36",WebKit,Chrome,92.0.4515.159,Windows,10.0,5f461dd6c139dd6b46c7596cbd57cd79
230,1,"""","""","""","""","""",sampler,182,296865,0.0-6.0-176.0,"""","""","""","""","""","""","""","""","""","""","""","""","2021-08-17 18:04:32",24.86.0.113,"Mozilla/5.0 (Windows NT 10.0; Win64; x64) AppleWebKit/537.36 (KHTML, like Gecko) Chrome/92.0.4515.159 Safari/537.36",WebKit,Chrome,92.0.4515.159,Windows,10.0,5f461dd6c139dd6b46c7596cbd57cd79
230,1,"""","""","""","""","""",sampler,183,296865,0.0-6.0-177.0,"""","""","""","""","""","""","""","""","""","""","""","""","2021-08-17 18:04:32",24.86.0.113,"Mozilla/5.0 (Windows NT 10.0; Win64; x64) AppleWebKit/537.36 (KHTML, like Gecko) Chrome/92.0.4515.159 Safari/537.36",WebKit,Chrome,92.0.4515.159,Windows,10.0,5f461dd6c139dd6b46c7596cbd57cd79
230,1,"""","""","""","""","""",sampler,184,296865,0.0-6.0-178.0,"""","""","""","""","""","""","""","""","""","""","""","""","2021-08-17 18:04:32",24.86.0.113,"Mozilla/5.0 (Windows NT 10.0; Win64; x64) AppleWebKit/537.36 (KHTML, like Gecko) Chrome/92.0.4515.159 Safari/537.36",WebKit,Chrome,92.0.4515.159,Windows,10.0,5f461dd6c139dd6b46c7596cbd57cd79
230,1,"""","""","""","""","""",sampler,185,296865,0.0-6.0-179.0,"""","""","""","""","""","""","""","""","""","""","""","""","2021-08-17 18:04:32",24.86.0.113,"Mozilla/5.0 (Windows NT 10.0; Win64; x64) AppleWebKit/537.36 (KHTML, like Gecko) Chrome/92.0.4515.159 Safari/537.36",WebKit,Chrome,92.0.4515.159,Windows,10.0,5f461dd6c139dd6b46c7596cbd57cd79
230,1,"""","""","""","""","""",sampler,186,296865,0.0-6.0-180.0,"""","""","""","""","""","""","""","""","""","""","""","""","2021-08-17 18:04:32",24.86.0.113,"Mozilla/5.0 (Windows NT 10.0; Win64; x64) AppleWebKit/537.36 (KHTML, like Gecko) Chrome/92.0.4515.159 Safari/537.36",WebKit,Chrome,92.0.4515.159,Windows,10.0,5f461dd6c139dd6b46c7596cbd57cd79
230,1,"""","""","""","""","""",sampler,187,296865,0.0-6.0-181.0,"""","""","""","""","""","""","""","""","""","""","""","""","2021-08-17 18:04:32",24.86.0.113,"Mozilla/5.0 (Windows NT 10.0; Win64; x64) AppleWebKit/537.36 (KHTML, like Gecko) Chrome/92.0.4515.159 Safari/537.36",WebKit,Chrome,92.0.4515.159,Windows,10.0,5f461dd6c139dd6b46c7596cbd57cd79
230,1,"""","""","""","""","""",sampler,188,296865,0.0-6.0-182.0,"""","""","""","""","""","""","""","""","""","""","""","""","2021-08-17 18:04:32",24.86.0.113,"Mozilla/5.0 (Windows NT 10.0; Win64; x64) AppleWebKit/537.36 (KHTML, like Gecko) Chrome/92.0.4515.159 Safari/537.36",WebKit,Chrome,92.0.4515.159,Windows,10.0,5f461dd6c139dd6b46c7596cbd57cd79
230,1,"""","""","""","""","""",sampler,189,296866,0.0-6.0-183.0,"""","""","""","""","""","""","""","""","""","""","""","""","2021-08-17 18:04:32",24.86.0.113,"Mozilla/5.0 (Windows NT 10.0; Win64; x64) AppleWebKit/537.36 (KHTML, like Gecko) Chrome/92.0.4515.159 Safari/537.36",WebKit,Chrome,92.0.4515.159,Windows,10.0,5f461dd6c139dd6b46c7596cbd57cd79
230,1,"""","""","""","""","""",sampler,190,296866,0.0-6.0-184.0,"""","""","""","""","""","""","""","""","""","""","""","""","2021-08-17 18:04:32",24.86.0.113,"Mozilla/5.0 (Windows NT 10.0; Win64; x64) AppleWebKit/537.36 (KHTML, like Gecko) Chrome/92.0.4515.159 Safari/537.36",WebKit,Chrome,92.0.4515.159,Windows,10.0,5f461dd6c139dd6b46c7596cbd57cd79
230,1,"""","""","""","""","""",sampler,191,296866,0.0-6.0-185.0,"""","""","""","""","""","""","""","""","""","""","""","""","2021-08-17 18:04:32",24.86.0.113,"Mozilla/5.0 (Windows NT 10.0; Win64; x64) AppleWebKit/537.36 (KHTML, like Gecko) Chrome/92.0.4515.159 Safari/537.36",WebKit,Chrome,92.0.4515.159,Windows,10.0,5f461dd6c139dd6b46c7596cbd57cd79
230,1,"""","""","""","""","""",sampler,192,296866,0.0-6.0-186.0,"""","""","""","""","""","""","""","""","""","""","""","""","2021-08-17 18:04:32",24.86.0.113,"Mozilla/5.0 (Windows NT 10.0; Win64; x64) AppleWebKit/537.36 (KHTML, like Gecko) Chrome/92.0.4515.159 Safari/537.36",WebKit,Chrome,92.0.4515.159,Windows,10.0,5f461dd6c139dd6b46c7596cbd57cd79
230,1,"""","""","""","""","""",sampler,193,296866,0.0-6.0-187.0,"""","""","""","""","""","""","""","""","""","""","""","""","2021-08-17 18:04:32",24.86.0.113,"Mozilla/5.0 (Windows NT 10.0; Win64; x64) AppleWebKit/537.36 (KHTML, like Gecko) Chrome/92.0.4515.159 Safari/537.36",WebKit,Chrome,92.0.4515.159,Windows,10.0,5f461dd6c139dd6b46c7596cbd57cd79
230,1,"""","""","""","""","""",sampler,194,296866,0.0-6.0-188.0,"""","""","""","""","""","""","""","""","""","""","""","""","2021-08-17 18:04:32",24.86.0.113,"Mozilla/5.0 (Windows NT 10.0; Win64; x64) AppleWebKit/537.36 (KHTML, like Gecko) Chrome/92.0.4515.159 Safari/537.36",WebKit,Chrome,92.0.4515.159,Windows,10.0,5f461dd6c139dd6b46c7596cbd57cd79
230,1,"""","""","""","""","""",sampler,195,296866,0.0-6.0-189.0,"""","""","""","""","""","""","""","""","""","""","""","""","2021-08-17 18:04:32",24.86.0.113,"Mozilla/5.0 (Windows NT 10.0; Win64; x64) AppleWebKit/537.36 (KHTML, like Gecko) Chrome/92.0.4515.159 Safari/537.36",WebKit,Chrome,92.0.4515.159,Windows,10.0,5f461dd6c139dd6b46c7596cbd57cd79
230,1,"""","""","""","""","""",sampler,196,296866,0.0-6.0-190.0,"""","""","""","""","""","""","""","""","""","""","""","""","2021-08-17 18:04:32",24.86.0.113,"Mozilla/5.0 (Windows NT 10.0; Win64; x64) AppleWebKit/537.36 (KHTML, like Gecko) Chrome/92.0.4515.159 Safari/537.36",WebKit,Chrome,92.0.4515.159,Windows,10.0,5f461dd6c139dd6b46c7596cbd57cd79
230,1,"""","""","""","""","""",sampler,197,296866,0.0-6.0-191.0,"""","""","""","""","""","""","""","""","""","""","""","""","2021-08-17 18:04:32",24.86.0.113,"Mozilla/5.0 (Windows NT 10.0; Win64; x64) AppleWebKit/537.36 (KHTML, like Gecko) Chrome/92.0.4515.159 Safari/537.36",WebKit,Chrome,92.0.4515.159,Windows,10.0,5f461dd6c139dd6b46c7596cbd57cd79
230,1,"""","""","""","""","""",sampler,198,296866,0.0-6.0-192.0,"""","""","""","""","""","""","""","""","""","""","""","""","2021-08-17 18:04:32",24.86.0.113,"Mozilla/5.0 (Windows NT 10.0; Win64; x64) AppleWebKit/537.36 (KHTML, like Gecko) Chrome/92.0.4515.159 Safari/537.36",WebKit,Chrome,92.0.4515.159,Windows,10.0,5f461dd6c139dd6b46c7596cbd57cd79
230,1,"""","""","""","""","""",sampler,199,296866,0.0-6.0-193.0,"""","""","""","""","""","""","""","""","""","""","""","""","2021-08-17 18:04:32",24.86.0.113,"Mozilla/5.0 (Windows NT 10.0; Win64; x64) AppleWebKit/537.36 (KHTML, like Gecko) Chrome/92.0.4515.159 Safari/537.36",WebKit,Chrome,92.0.4515.159,Windows,10.0,5f461dd6c139dd6b46c7596cbd57cd79
230,1,"""","""","""","""","""",sampler,200,296867,0.0-6.0-194.0,"""","""","""","""","""","""","""","""","""","""","""","""","2021-08-17 18:04:32",24.86.0.113,"Mozilla/5.0 (Windows NT 10.0; Win64; x64) AppleWebKit/537.36 (KHTML, like Gecko) Chrome/92.0.4515.159 Safari/537.36",WebKit,Chrome,92.0.4515.159,Windows,10.0,5f461dd6c139dd6b46c7596cbd57cd79
230,1,"""","""","""","""","""",sampler,201,296867,0.0-6.0-195.0,"""","""","""","""","""","""","""","""","""","""","""","""","2021-08-17 18:04:32",24.86.0.113,"Mozilla/5.0 (Windows NT 10.0; Win64; x64) AppleWebKit/537.36 (KHTML, like Gecko) Chrome/92.0.4515.159 Safari/537.36",WebKit,Chrome,92.0.4515.159,Windows,10.0,5f461dd6c139dd6b46c7596cbd57cd79
230,1,"""","""","""","""","""",sampler,202,296867,0.0-6.0-196.0,"""","""","""","""","""","""","""","""","""","""","""","""","2021-08-17 18:04:32",24.86.0.113,"Mozilla/5.0 (Windows NT 10.0; Win64; x64) AppleWebKit/537.36 (KHTML, like Gecko) Chrome/92.0.4515.159 Safari/537.36",WebKit,Chrome,92.0.4515.159,Windows,10.0,5f461dd6c139dd6b46c7596cbd57cd79
230,1,"""","""","""","""","""",sampler,203,296867,0.0-6.0-197.0,"""","""","""","""","""","""","""","""","""","""","""","""","2021-08-17 18:04:32",24.86.0.113,"Mozilla/5.0 (Windows NT 10.0; Win64; x64) AppleWebKit/537.36 (KHTML, like Gecko) Chrome/92.0.4515.159 Safari/537.36",WebKit,Chrome,92.0.4515.159,Windows,10.0,5f461dd6c139dd6b46c7596cbd57cd79
230,1,"""","""","""","""","""",sampler,204,296867,0.0-6.0-198.0,"""","""","""","""","""","""","""","""","""","""","""","""","2021-08-17 18:04:32",24.86.0.113,"Mozilla/5.0 (Windows NT 10.0; Win64; x64) AppleWebKit/537.36 (KHTML, like Gecko) Chrome/92.0.4515.159 Safari/537.36",WebKit,Chrome,92.0.4515.159,Windows,10.0,5f461dd6c139dd6b46c7596cbd57cd79
230,1,"""","""","""","""","""",sampler,205,296867,0.0-6.0-199.0,"""","""","""","""","""","""","""","""","""","""","""","""","2021-08-17 18:04:32",24.86.0.113,"Mozilla/5.0 (Windows NT 10.0; Win64; x64) AppleWebKit/537.36 (KHTML, like Gecko) Chrome/92.0.4515.159 Safari/537.36",WebKit,Chrome,92.0.4515.159,Windows,10.0,5f461dd6c139dd6b46c7596cbd57cd79
230,1,"""","""","""","""","""",sampler,206,296867,0.0-6.0-200.0,"""","""","""","""","""","""","""","""","""","""","""","""","2021-08-17 18:04:32",24.86.0.113,"Mozilla/5.0 (Windows NT 10.0; Win64; x64) AppleWebKit/537.36 (KHTML, like Gecko) Chrome/92.0.4515.159 Safari/537.36",WebKit,Chrome,92.0.4515.159,Windows,10.0,5f461dd6c139dd6b46c7596cbd57cd79
230,1,"""","""","""","""","""",sampler,207,296867,0.0-6.0-201.0,"""","""","""","""","""","""","""","""","""","""","""","""","2021-08-17 18:04:32",24.86.0.113,"Mozilla/5.0 (Windows NT 10.0; Win64; x64) AppleWebKit/537.36 (KHTML, like Gecko) Chrome/92.0.4515.159 Safari/537.36",WebKit,Chrome,92.0.4515.159,Windows,10.0,5f461dd6c139dd6b46c7596cbd57cd79
230,1,"""","""","""","""","""",sampler,208,296867,0.0-6.0-202.0,"""","""","""","""","""","""","""","""","""","""","""","""","2021-08-17 18:04:32",24.86.0.113,"Mozilla/5.0 (Windows NT 10.0; Win64; x64) AppleWebKit/537.36 (KHTML, like Gecko) Chrome/92.0.4515.159 Safari/537.36",WebKit,Chrome,92.0.4515.159,Windows,10.0,5f461dd6c139dd6b46c7596cbd57cd79
230,1,"""","""","""","""","""",sampler,209,296868,0.0-6.0-203.0,"""","""","""","""","""","""","""","""","""","""","""","""","2021-08-17 18:04:32",24.86.0.113,"Mozilla/5.0 (Windows NT 10.0; Win64; x64) AppleWebKit/537.36 (KHTML, like Gecko) Chrome/92.0.4515.159 Safari/537.36",WebKit,Chrome,92.0.4515.159,Windows,10.0,5f461dd6c139dd6b46c7596cbd57cd79
230,1,"""","""","""","""","""",sampler,210,296868,0.0-6.0-204.0,"""","""","""","""","""","""","""","""","""","""","""","""","2021-08-17 18:04:32",24.86.0.113,"Mozilla/5.0 (Windows NT 10.0; Win64; x64) AppleWebKit/537.36 (KHTML, like Gecko) Chrome/92.0.4515.159 Safari/537.36",WebKit,Chrome,92.0.4515.159,Windows,10.0,5f461dd6c139dd6b46c7596cbd57cd79
230,1,"""","""","""","""","""",sampler,211,296868,0.0-6.0-205.0,"""","""","""","""","""","""","""","""","""","""","""","""","2021-08-17 18:04:32",24.86.0.113,"Mozilla/5.0 (Windows NT 10.0; Win64; x64) AppleWebKit/537.36 (KHTML, like Gecko) Chrome/92.0.4515.159 Safari/537.36",WebKit,Chrome,92.0.4515.159,Windows,10.0,5f461dd6c139dd6b46c7596cbd57cd79
230,1,"""","""","""","""","""",sampler,212,296868,0.0-6.0-206.0,"""","""","""","""","""","""","""","""","""","""","""","""","2021-08-17 18:04:32",24.86.0.113,"Mozilla/5.0 (Windows NT 10.0; Win64; x64) AppleWebKit/537.36 (KHTML, like Gecko) Chrome/92.0.4515.159 Safari/537.36",WebKit,Chrome,92.0.4515.159,Windows,10.0,5f461dd6c139dd6b46c7596cbd57cd79
230,1,"""","""","""","""","""",sampler,213,296869,0.0-6.0-207.0,"""","""","""","""","""","""","""","""","""","""","""","""","2021-08-17 18:04:32",24.86.0.113,"Mozilla/5.0 (Windows NT 10.0; Win64; x64) AppleWebKit/537.36 (KHTML, like Gecko) Chrome/92.0.4515.159 Safari/537.36",WebKit,Chrome,92.0.4515.159,Windows,10.0,5f461dd6c139dd6b46c7596cbd57cd79
230,1,"""","""","""","""","""",sampler,214,296869,0.0-6.0-208.0,"""","""","""","""","""","""","""","""","""","""","""","""","2021-08-17 18:04:32",24.86.0.113,"Mozilla/5.0 (Windows NT 10.0; Win64; x64) AppleWebKit/537.36 (KHTML, like Gecko) Chrome/92.0.4515.159 Safari/537.36",WebKit,Chrome,92.0.4515.159,Windows,10.0,5f461dd6c139dd6b46c7596cbd57cd79
230,1,"""","""","""","""","""",sampler,215,296869,0.0-6.0-209.0,"""","""","""","""","""","""","""","""","""","""","""","""","2021-08-17 18:04:32",24.86.0.113,"Mozilla/5.0 (Windows NT 10.0; Win64; x64) AppleWebKit/537.36 (KHTML, like Gecko) Chrome/92.0.4515.159 Safari/537.36",WebKit,Chrome,92.0.4515.159,Windows,10.0,5f461dd6c139dd6b46c7596cbd57cd79
230,1,"""","""","""","""","""",sampler,216,296869,0.0-6.0-210.0,"""","""","""","""","""","""","""","""","""","""","""","""","2021-08-17 18:04:32",24.86.0.113,"Mozilla/5.0 (Windows NT 10.0; Win64; x64) AppleWebKit/537.36 (KHTML, like Gecko) Chrome/92.0.4515.159 Safari/537.36",WebKit,Chrome,92.0.4515.159,Windows,10.0,5f461dd6c139dd6b46c7596cbd57cd79
230,1,"""","""","""","""","""",sampler,217,296869,0.0-6.0-211.0,"""","""","""","""","""","""","""","""","""","""","""","""","2021-08-17 18:04:32",24.86.0.113,"Mozilla/5.0 (Windows NT 10.0; Win64; x64) AppleWebKit/537.36 (KHTML, like Gecko) Chrome/92.0.4515.159 Safari/537.36",WebKit,Chrome,92.0.4515.159,Windows,10.0,5f461dd6c139dd6b46c7596cbd57cd79
230,1,"""","""","""","""","""",sampler,218,296869,0.0-6.0-212.0,"""","""","""","""","""","""","""","""","""","""","""","""","2021-08-17 18:04:32",24.86.0.113,"Mozilla/5.0 (Windows NT 10.0; Win64; x64) AppleWebKit/537.36 (KHTML, like Gecko) Chrome/92.0.4515.159 Safari/537.36",WebKit,Chrome,92.0.4515.159,Windows,10.0,5f461dd6c139dd6b46c7596cbd57cd79
230,1,"""","""","""","""","""",sampler,219,296869,0.0-6.0-213.0,"""","""","""","""","""","""","""","""","""","""","""","""","2021-08-17 18:04:32",24.86.0.113,"Mozilla/5.0 (Windows NT 10.0; Win64; x64) AppleWebKit/537.36 (KHTML, like Gecko) Chrome/92.0.4515.159 Safari/537.36",WebKit,Chrome,92.0.4515.159,Windows,10.0,5f461dd6c139dd6b46c7596cbd57cd79
230,1,"""","""","""","""","""",sampler,220,296869,0.0-6.0-214.0,"""","""","""","""","""","""","""","""","""","""","""","""","2021-08-17 18:04:32",24.86.0.113,"Mozilla/5.0 (Windows NT 10.0; Win64; x64) AppleWebKit/537.36 (KHTML, like Gecko) Chrome/92.0.4515.159 Safari/537.36",WebKit,Chrome,92.0.4515.159,Windows,10.0,5f461dd6c139dd6b46c7596cbd57cd79
230,1,"""","""","""","""","""",sampler,221,296869,0.0-6.0-215.0,"""","""","""","""","""","""","""","""","""","""","""","""","2021-08-17 18:04:32",24.86.0.113,"Mozilla/5.0 (Windows NT 10.0; Win64; x64) AppleWebKit/537.36 (KHTML, like Gecko) Chrome/92.0.4515.159 Safari/537.36",WebKit,Chrome,92.0.4515.159,Windows,10.0,5f461dd6c139dd6b46c7596cbd57cd79
230,1,"""","""","""","""","""",sampler,222,296870,0.0-6.0-216.0,"""","""","""","""","""","""","""","""","""","""","""","""","2021-08-17 18:04:32",24.86.0.113,"Mozilla/5.0 (Windows NT 10.0; Win64; x64) AppleWebKit/537.36 (KHTML, like Gecko) Chrome/92.0.4515.159 Safari/537.36",WebKit,Chrome,92.0.4515.159,Windows,10.0,5f461dd6c139dd6b46c7596cbd57cd79
230,1,"""","""","""","""","""",sampler,223,296870,0.0-6.0-217.0,"""","""","""","""","""","""","""","""","""","""","""","""","2021-08-17 18:04:32",24.86.0.113,"Mozilla/5.0 (Windows NT 10.0; Win64; x64) AppleWebKit/537.36 (KHTML, like Gecko) Chrome/92.0.4515.159 Safari/537.36",WebKit,Chrome,92.0.4515.159,Windows,10.0,5f461dd6c139dd6b46c7596cbd57cd79
230,1,"""","""","""","""","""",sampler,224,296870,0.0-6.0-218.0,"""","""","""","""","""","""","""","""","""","""","""","""","2021-08-17 18:04:32",24.86.0.113,"Mozilla/5.0 (Windows NT 10.0; Win64; x64) AppleWebKit/537.36 (KHTML, like Gecko) Chrome/92.0.4515.159 Safari/537.36",WebKit,Chrome,92.0.4515.159,Windows,10.0,5f461dd6c139dd6b46c7596cbd57cd79
230,1,"""","""","""","""","""",sampler,225,296870,0.0-6.0-219.0,"""","""","""","""","""","""","""","""","""","""","""","""","2021-08-17 18:04:32",24.86.0.113,"Mozilla/5.0 (Windows NT 10.0; Win64; x64) AppleWebKit/537.36 (KHTML, like Gecko) Chrome/92.0.4515.159 Safari/537.36",WebKit,Chrome,92.0.4515.159,Windows,10.0,5f461dd6c139dd6b46c7596cbd57cd79
230,1,"""","""","""","""","""",sampler,226,296870,0.0-6.0-220.0,"""","""","""","""","""","""","""","""","""","""","""","""","2021-08-17 18:04:32",24.86.0.113,"Mozilla/5.0 (Windows NT 10.0; Win64; x64) AppleWebKit/537.36 (KHTML, like Gecko) Chrome/92.0.4515.159 Safari/537.36",WebKit,Chrome,92.0.4515.159,Windows,10.0,5f461dd6c139dd6b46c7596cbd57cd79
230,1,"""","""","""","""","""",sampler,227,296870,0.0-6.0-221.0,"""","""","""","""","""","""","""","""","""","""","""","""","2021-08-17 18:04:32",24.86.0.113,"Mozilla/5.0 (Windows NT 10.0; Win64; x64) AppleWebKit/537.36 (KHTML, like Gecko) Chrome/92.0.4515.159 Safari/537.36",WebKit,Chrome,92.0.4515.159,Windows,10.0,5f461dd6c139dd6b46c7596cbd57cd79
230,1,"""","""","""","""","""",sampler,228,296870,0.0-6.0-222.0,"""","""","""","""","""","""","""","""","""","""","""","""","2021-08-17 18:04:32",24.86.0.113,"Mozilla/5.0 (Windows NT 10.0; Win64; x64) AppleWebKit/537.36 (KHTML, like Gecko) Chrome/92.0.4515.159 Safari/537.36",WebKit,Chrome,92.0.4515.159,Windows,10.0,5f461dd6c139dd6b46c7596cbd57cd79
230,1,"""","""","""","""","""",sampler,229,296870,0.0-6.0-223.0,"""","""","""","""","""","""","""","""","""","""","""","""","2021-08-17 18:04:32",24.86.0.113,"Mozilla/5.0 (Windows NT 10.0; Win64; x64) AppleWebKit/537.36 (KHTML, like Gecko) Chrome/92.0.4515.159 Safari/537.36",WebKit,Chrome,92.0.4515.159,Windows,10.0,5f461dd6c139dd6b46c7596cbd57cd79
230,1,"""","""","""","""","""",sampler,230,296870,0.0-6.0-224.0,"""","""","""","""","""","""","""","""","""","""","""","""","2021-08-17 18:04:32",24.86.0.113,"Mozilla/5.0 (Windows NT 10.0; Win64; x64) AppleWebKit/537.36 (KHTML, like Gecko) Chrome/92.0.4515.159 Safari/537.36",WebKit,Chrome,92.0.4515.159,Windows,10.0,5f461dd6c139dd6b46c7596cbd57cd79
230,1,"""","""","""","""","""",sampler,231,296871,0.0-6.0-225.0,"""","""","""","""","""","""","""","""","""","""","""","""","2021-08-17 18:04:32",24.86.0.113,"Mozilla/5.0 (Windows NT 10.0; Win64; x64) AppleWebKit/537.36 (KHTML, like Gecko) Chrome/92.0.4515.159 Safari/537.36",WebKit,Chrome,92.0.4515.159,Windows,10.0,5f461dd6c139dd6b46c7596cbd57cd79
230,1,"""","""","""","""","""",sampler,232,296871,0.0-6.0-226.0,"""","""","""","""","""","""","""","""","""","""","""","""","2021-08-17 18:04:32",24.86.0.113,"Mozilla/5.0 (Windows NT 10.0; Win64; x64) AppleWebKit/537.36 (KHTML, like Gecko) Chrome/92.0.4515.159 Safari/537.36",WebKit,Chrome,92.0.4515.159,Windows,10.0,5f461dd6c139dd6b46c7596cbd57cd79
230,1,"""","""","""","""","""",sampler,233,296871,0.0-6.0-227.0,"""","""","""","""","""","""","""","""","""","""","""","""","2021-08-17 18:04:32",24.86.0.113,"Mozilla/5.0 (Windows NT 10.0; Win64; x64) AppleWebKit/537.36 (KHTML, like Gecko) Chrome/92.0.4515.159 Safari/537.36",WebKit,Chrome,92.0.4515.159,Windows,10.0,5f461dd6c139dd6b46c7596cbd57cd79
230,1,"""","""","""","""","""",sampler,234,296871,0.0-6.0-228.0,"""","""","""","""","""","""","""","""","""","""","""","""","2021-08-17 18:04:32",24.86.0.113,"Mozilla/5.0 (Windows NT 10.0; Win64; x64) AppleWebKit/537.36 (KHTML, like Gecko) Chrome/92.0.4515.159 Safari/537.36",WebKit,Chrome,92.0.4515.159,Windows,10.0,5f461dd6c139dd6b46c7596cbd57cd79
230,1,"""","""","""","""","""",sampler,235,296871,0.0-6.0-229.0,"""","""","""","""","""","""","""","""","""","""","""","""","2021-08-17 18:04:32",24.86.0.113,"Mozilla/5.0 (Windows NT 10.0; Win64; x64) AppleWebKit/537.36 (KHTML, like Gecko) Chrome/92.0.4515.159 Safari/537.36",WebKit,Chrome,92.0.4515.159,Windows,10.0,5f461dd6c139dd6b46c7596cbd57cd79
230,1,"""","""","""","""","""",sampler,236,296871,0.0-6.0-230.0,"""","""","""","""","""","""","""","""","""","""","""","""","2021-08-17 18:04:32",24.86.0.113,"Mozilla/5.0 (Windows NT 10.0; Win64; x64) AppleWebKit/537.36 (KHTML, like Gecko) Chrome/92.0.4515.159 Safari/537.36",WebKit,Chrome,92.0.4515.159,Windows,10.0,5f461dd6c139dd6b46c7596cbd57cd79
230,1,"""","""","""","""","""",sampler,237,296871,0.0-6.0-231.0,"""","""","""","""","""","""","""","""","""","""","""","""","2021-08-17 18:04:32",24.86.0.113,"Mozilla/5.0 (Windows NT 10.0; Win64; x64) AppleWebKit/537.36 (KHTML, like Gecko) Chrome/92.0.4515.159 Safari/537.36",WebKit,Chrome,92.0.4515.159,Windows,10.0,5f461dd6c139dd6b46c7596cbd57cd79
230,1,"""","""","""","""","""",sampler,238,296871,0.0-6.0-232.0,"""","""","""","""","""","""","""","""","""","""","""","""","2021-08-17 18:04:32",24.86.0.113,"Mozilla/5.0 (Windows NT 10.0; Win64; x64) AppleWebKit/537.36 (KHTML, like Gecko) Chrome/92.0.4515.159 Safari/537.36",WebKit,Chrome,92.0.4515.159,Windows,10.0,5f461dd6c139dd6b46c7596cbd57cd79
230,1,"""","""","""","""","""",sampler,239,296871,0.0-6.0-233.0,"""","""","""","""","""","""","""","""","""","""","""","""","2021-08-17 18:04:32",24.86.0.113,"Mozilla/5.0 (Windows NT 10.0; Win64; x64) AppleWebKit/537.36 (KHTML, like Gecko) Chrome/92.0.4515.159 Safari/537.36",WebKit,Chrome,92.0.4515.159,Windows,10.0,5f461dd6c139dd6b46c7596cbd57cd79
230,1,"""","""","""","""","""",sampler,240,296872,0.0-6.0-234.0,"""","""","""","""","""","""","""","""","""","""","""","""","2021-08-17 18:04:32",24.86.0.113,"Mozilla/5.0 (Windows NT 10.0; Win64; x64) AppleWebKit/537.36 (KHTML, like Gecko) Chrome/92.0.4515.159 Safari/537.36",WebKit,Chrome,92.0.4515.159,Windows,10.0,5f461dd6c139dd6b46c7596cbd57cd79
230,1,"""","""","""","""","""",sampler,241,296872,0.0-6.0-235.0,"""","""","""","""","""","""","""","""","""","""","""","""","2021-08-17 18:04:32",24.86.0.113,"Mozilla/5.0 (Windows NT 10.0; Win64; x64) AppleWebKit/537.36 (KHTML, like Gecko) Chrome/92.0.4515.159 Safari/537.36",WebKit,Chrome,92.0.4515.159,Windows,10.0,5f461dd6c139dd6b46c7596cbd57cd79
230,1,"""","""","""","""","""",sampler,242,296872,0.0-6.0-236.0,"""","""","""","""","""","""","""","""","""","""","""","""","2021-08-17 18:04:32",24.86.0.113,"Mozilla/5.0 (Windows NT 10.0; Win64; x64) AppleWebKit/537.36 (KHTML, like Gecko) Chrome/92.0.4515.159 Safari/537.36",WebKit,Chrome,92.0.4515.159,Windows,10.0,5f461dd6c139dd6b46c7596cbd57cd79
230,1,"""","""","""","""","""",sampler,243,296872,0.0-6.0-237.0,"""","""","""","""","""","""","""","""","""","""","""","""","2021-08-17 18:04:32",24.86.0.113,"Mozilla/5.0 (Windows NT 10.0; Win64; x64) AppleWebKit/537.36 (KHTML, like Gecko) Chrome/92.0.4515.159 Safari/537.36",WebKit,Chrome,92.0.4515.159,Windows,10.0,5f461dd6c139dd6b46c7596cbd57cd79
230,1,"""","""","""","""","""",sampler,244,296872,0.0-6.0-238.0,"""","""","""","""","""","""","""","""","""","""","""","""","2021-08-17 18:04:32",24.86.0.113,"Mozilla/5.0 (Windows NT 10.0; Win64; x64) AppleWebKit/537.36 (KHTML, like Gecko) Chrome/92.0.4515.159 Safari/537.36",WebKit,Chrome,92.0.4515.159,Windows,10.0,5f461dd6c139dd6b46c7596cbd57cd79
230,1,"""","""","""","""","""",sampler,245,296872,0.0-6.0-239.0,"""","""","""","""","""","""","""","""","""","""","""","""","2021-08-17 18:04:32",24.86.0.113,"Mozilla/5.0 (Windows NT 10.0; Win64; x64) AppleWebKit/537.36 (KHTML, like Gecko) Chrome/92.0.4515.159 Safari/537.36",WebKit,Chrome,92.0.4515.159,Windows,10.0,5f461dd6c139dd6b46c7596cbd57cd79
230,1,"""","""","""","""","""",sampler,246,296872,0.0-6.0-240.0,"""","""","""","""","""","""","""","""","""","""","""","""","2021-08-17 18:04:32",24.86.0.113,"Mozilla/5.0 (Windows NT 10.0; Win64; x64) AppleWebKit/537.36 (KHTML, like Gecko) Chrome/92.0.4515.159 Safari/537.36",WebKit,Chrome,92.0.4515.159,Windows,10.0,5f461dd6c139dd6b46c7596cbd57cd79
230,1,"""","""","""","""","""",sampler,247,296872,0.0-6.0-241.0,"""","""","""","""","""","""","""","""","""","""","""","""","2021-08-17 18:04:32",24.86.0.113,"Mozilla/5.0 (Windows NT 10.0; Win64; x64) AppleWebKit/537.36 (KHTML, like Gecko) Chrome/92.0.4515.159 Safari/537.36",WebKit,Chrome,92.0.4515.159,Windows,10.0,5f461dd6c139dd6b46c7596cbd57cd79
230,1,"""","""","""","""","""",sampler,248,296872,0.0-6.0-242.0,"""","""","""","""","""","""","""","""","""","""","""","""","2021-08-17 18:04:32",24.86.0.113,"Mozilla/5.0 (Windows NT 10.0; Win64; x64) AppleWebKit/537.36 (KHTML, like Gecko) Chrome/92.0.4515.159 Safari/537.36",WebKit,Chrome,92.0.4515.159,Windows,10.0,5f461dd6c139dd6b46c7596cbd57cd79
230,1,"""","""","""","""","""",sampler,249,296872,0.0-6.0-243.0,"""","""","""","""","""","""","""","""","""","""","""","""","2021-08-17 18:04:32",24.86.0.113,"Mozilla/5.0 (Windows NT 10.0; Win64; x64) AppleWebKit/537.36 (KHTML, like Gecko) Chrome/92.0.4515.159 Safari/537.36",WebKit,Chrome,92.0.4515.159,Windows,10.0,5f461dd6c139dd6b46c7596cbd57cd79
230,1,"""","""","""","""","""",sampler,250,296873,0.0-6.0-244.0,"""","""","""","""","""","""","""","""","""","""","""","""","2021-08-17 18:04:32",24.86.0.113,"Mozilla/5.0 (Windows NT 10.0; Win64; x64) AppleWebKit/537.36 (KHTML, like Gecko) Chrome/92.0.4515.159 Safari/537.36",WebKit,Chrome,92.0.4515.159,Windows,10.0,5f461dd6c139dd6b46c7596cbd57cd79
230,1,"""","""","""","""","""",sampler,251,296873,0.0-6.0-245.0,"""","""","""","""","""","""","""","""","""","""","""","""","2021-08-17 18:04:32",24.86.0.113,"Mozilla/5.0 (Windows NT 10.0; Win64; x64) AppleWebKit/537.36 (KHTML, like Gecko) Chrome/92.0.4515.159 Safari/537.36",WebKit,Chrome,92.0.4515.159,Windows,10.0,5f461dd6c139dd6b46c7596cbd57cd79
230,1,"""","""","""","""","""",sampler,252,296873,0.0-6.0-246.0,"""","""","""","""","""","""","""","""","""","""","""","""","2021-08-17 18:04:32",24.86.0.113,"Mozilla/5.0 (Windows NT 10.0; Win64; x64) AppleWebKit/537.36 (KHTML, like Gecko) Chrome/92.0.4515.159 Safari/537.36",WebKit,Chrome,92.0.4515.159,Windows,10.0,5f461dd6c139dd6b46c7596cbd57cd79
230,1,"""","""","""","""","""",sampler,253,296873,0.0-6.0-247.0,"""","""","""","""","""","""","""","""","""","""","""","""","2021-08-17 18:04:32",24.86.0.113,"Mozilla/5.0 (Windows NT 10.0; Win64; x64) AppleWebKit/537.36 (KHTML, like Gecko) Chrome/92.0.4515.159 Safari/537.36",WebKit,Chrome,92.0.4515.159,Windows,10.0,5f461dd6c139dd6b46c7596cbd57cd79
230,1,"""","""","""","""","""",sampler,254,296873,0.0-6.0-248.0,"""","""","""","""","""","""","""","""","""","""","""","""","2021-08-17 18:04:32",24.86.0.113,"Mozilla/5.0 (Windows NT 10.0; Win64; x64) AppleWebKit/537.36 (KHTML, like Gecko) Chrome/92.0.4515.159 Safari/537.36",WebKit,Chrome,92.0.4515.159,Windows,10.0,5f461dd6c139dd6b46c7596cbd57cd79
230,1,"""","""","""","""","""",sampler,255,296873,0.0-6.0-249.0,"""","""","""","""","""","""","""","""","""","""","""","""","2021-08-17 18:04:32",24.86.0.113,"Mozilla/5.0 (Windows NT 10.0; Win64; x64) AppleWebKit/537.36 (KHTML, like Gecko) Chrome/92.0.4515.159 Safari/537.36",WebKit,Chrome,92.0.4515.159,Windows,10.0,5f461dd6c139dd6b46c7596cbd57cd79
230,1,"""","""","""","""","""",sampler,256,296873,0.0-6.0-250.0,"""","""","""","""","""","""","""","""","""","""","""","""","2021-08-17 18:04:32",24.86.0.113,"Mozilla/5.0 (Windows NT 10.0; Win64; x64) AppleWebKit/537.36 (KHTML, like Gecko) Chrome/92.0.4515.159 Safari/537.36",WebKit,Chrome,92.0.4515.159,Windows,10.0,5f461dd6c139dd6b46c7596cbd57cd79
230,1,"""","""","""","""","""",sampler,257,296873,0.0-6.0-251.0,"""","""","""","""","""","""","""","""","""","""","""","""","2021-08-17 18:04:32",24.86.0.113,"Mozilla/5.0 (Windows NT 10.0; Win64; x64) AppleWebKit/537.36 (KHTML, like Gecko) Chrome/92.0.4515.159 Safari/537.36",WebKit,Chrome,92.0.4515.159,Windows,10.0,5f461dd6c139dd6b46c7596cbd57cd79
230,1,"""","""","""","""","""",sampler,258,296873,0.0-6.0-252.0,"""","""","""","""","""","""","""","""","""","""","""","""","2021-08-17 18:04:32",24.86.0.113,"Mozilla/5.0 (Windows NT 10.0; Win64; x64) AppleWebKit/537.36 (KHTML, like Gecko) Chrome/92.0.4515.159 Safari/537.36",WebKit,Chrome,92.0.4515.159,Windows,10.0,5f461dd6c139dd6b46c7596cbd57cd79
230,1,"""","""","""","""","""",sampler,259,296874,0.0-6.0-253.0,"""","""","""","""","""","""","""","""","""","""","""","""","2021-08-17 18:04:32",24.86.0.113,"Mozilla/5.0 (Windows NT 10.0; Win64; x64) AppleWebKit/537.36 (KHTML, like Gecko) Chrome/92.0.4515.159 Safari/537.36",WebKit,Chrome,92.0.4515.159,Windows,10.0,5f461dd6c139dd6b46c7596cbd57cd79
230,1,"""","""","""","""","""",sampler,260,296874,0.0-6.0-254.0,"""","""","""","""","""","""","""","""","""","""","""","""","2021-08-17 18:04:32",24.86.0.113,"Mozilla/5.0 (Windows NT 10.0; Win64; x64) AppleWebKit/537.36 (KHTML, like Gecko) Chrome/92.0.4515.159 Safari/537.36",WebKit,Chrome,92.0.4515.159,Windows,10.0,5f461dd6c139dd6b46c7596cbd57cd79
230,1,"""","""","""","""","""",sampler,261,296874,0.0-6.0-255.0,"""","""","""","""","""","""","""","""","""","""","""","""","2021-08-17 18:04:32",24.86.0.113,"Mozilla/5.0 (Windows NT 10.0; Win64; x64) AppleWebKit/537.36 (KHTML, like Gecko) Chrome/92.0.4515.159 Safari/537.36",WebKit,Chrome,92.0.4515.159,Windows,10.0,5f461dd6c139dd6b46c7596cbd57cd79
230,1,"""","""","""","""","""",sampler,262,296874,0.0-6.0-256.0,"""","""","""","""","""","""","""","""","""","""","""","""","2021-08-17 18:04:32",24.86.0.113,"Mozilla/5.0 (Windows NT 10.0; Win64; x64) AppleWebKit/537.36 (KHTML, like Gecko) Chrome/92.0.4515.159 Safari/537.36",WebKit,Chrome,92.0.4515.159,Windows,10.0,5f461dd6c139dd6b46c7596cbd57cd79
230,1,"""","""","""","""","""",sampler,263,296874,0.0-6.0-257.0,"""","""","""","""","""","""","""","""","""","""","""","""","2021-08-17 18:04:32",24.86.0.113,"Mozilla/5.0 (Windows NT 10.0; Win64; x64) AppleWebKit/537.36 (KHTML, like Gecko) Chrome/92.0.4515.159 Safari/537.36",WebKit,Chrome,92.0.4515.159,Windows,10.0,5f461dd6c139dd6b46c7596cbd57cd79
230,1,"""","""","""","""","""",sampler,264,296874,0.0-6.0-258.0,"""","""","""","""","""","""","""","""","""","""","""","""","2021-08-17 18:04:32",24.86.0.113,"Mozilla/5.0 (Windows NT 10.0; Win64; x64) AppleWebKit/537.36 (KHTML, like Gecko) Chrome/92.0.4515.159 Safari/537.36",WebKit,Chrome,92.0.4515.159,Windows,10.0,5f461dd6c139dd6b46c7596cbd57cd79
230,1,"""","""","""","""","""",sampler,265,296874,0.0-6.0-259.0,"""","""","""","""","""","""","""","""","""","""","""","""","2021-08-17 18:04:32",24.86.0.113,"Mozilla/5.0 (Windows NT 10.0; Win64; x64) AppleWebKit/537.36 (KHTML, like Gecko) Chrome/92.0.4515.159 Safari/537.36",WebKit,Chrome,92.0.4515.159,Windows,10.0,5f461dd6c139dd6b46c7596cbd57cd79
230,1,"""","""","""","""","""",sampler,266,296874,0.0-6.0-260.0,"""","""","""","""","""","""","""","""","""","""","""","""","2021-08-17 18:04:32",24.86.0.113,"Mozilla/5.0 (Windows NT 10.0; Win64; x64) AppleWebKit/537.36 (KHTML, like Gecko) Chrome/92.0.4515.159 Safari/537.36",WebKit,Chrome,92.0.4515.159,Windows,10.0,5f461dd6c139dd6b46c7596cbd57cd79
230,1,"""","""","""","""","""",sampler,267,296874,0.0-6.0-261.0,"""","""","""","""","""","""","""","""","""","""","""","""","2021-08-17 18:04:32",24.86.0.113,"Mozilla/5.0 (Windows NT 10.0; Win64; x64) AppleWebKit/537.36 (KHTML, like Gecko) Chrome/92.0.4515.159 Safari/537.36",WebKit,Chrome,92.0.4515.159,Windows,10.0,5f461dd6c139dd6b46c7596cbd57cd79
230,1,"""","""","""","""","""",sampler,268,296874,0.0-6.0-262.0,"""","""","""","""","""","""","""","""","""","""","""","""","2021-08-17 18:04:32",24.86.0.113,"Mozilla/5.0 (Windows NT 10.0; Win64; x64) AppleWebKit/537.36 (KHTML, like Gecko) Chrome/92.0.4515.159 Safari/537.36",WebKit,Chrome,92.0.4515.159,Windows,10.0,5f461dd6c139dd6b46c7596cbd57cd79
230,1,"""","""","""","""","""",sampler,269,296874,0.0-6.0-263.0,"""","""","""","""","""","""","""","""","""","""","""","""","2021-08-17 18:04:32",24.86.0.113,"Mozilla/5.0 (Windows NT 10.0; Win64; x64) AppleWebKit/537.36 (KHTML, like Gecko) Chrome/92.0.4515.159 Safari/537.36",WebKit,Chrome,92.0.4515.159,Windows,10.0,5f461dd6c139dd6b46c7596cbd57cd79
230,1,"""","""","""","""","""",sampler,270,296875,0.0-6.0-264.0,"""","""","""","""","""","""","""","""","""","""","""","""","2021-08-17 18:04:32",24.86.0.113,"Mozilla/5.0 (Windows NT 10.0; Win64; x64) AppleWebKit/537.36 (KHTML, like Gecko) Chrome/92.0.4515.159 Safari/537.36",WebKit,Chrome,92.0.4515.159,Windows,10.0,5f461dd6c139dd6b46c7596cbd57cd79
230,1,"""","""","""","""","""",sampler,271,296875,0.0-6.0-265.0,"""","""","""","""","""","""","""","""","""","""","""","""","2021-08-17 18:04:32",24.86.0.113,"Mozilla/5.0 (Windows NT 10.0; Win64; x64) AppleWebKit/537.36 (KHTML, like Gecko) Chrome/92.0.4515.159 Safari/537.36",WebKit,Chrome,92.0.4515.159,Windows,10.0,5f461dd6c139dd6b46c7596cbd57cd79
230,1,"""","""","""","""","""",sampler,272,296875,0.0-6.0-266.0,"""","""","""","""","""","""","""","""","""","""","""","""","2021-08-17 18:04:32",24.86.0.113,"Mozilla/5.0 (Windows NT 10.0; Win64; x64) AppleWebKit/537.36 (KHTML, like Gecko) Chrome/92.0.4515.159 Safari/537.36",WebKit,Chrome,92.0.4515.159,Windows,10.0,5f461dd6c139dd6b46c7596cbd57cd79
230,1,"""","""","""","""","""",sampler,273,296875,0.0-6.0-267.0,"""","""","""","""","""","""","""","""","""","""","""","""","2021-08-17 18:04:32",24.86.0.113,"Mozilla/5.0 (Windows NT 10.0; Win64; x64) AppleWebKit/537.36 (KHTML, like Gecko) Chrome/92.0.4515.159 Safari/537.36",WebKit,Chrome,92.0.4515.159,Windows,10.0,5f461dd6c139dd6b46c7596cbd57cd79
230,1,"""","""","""","""","""",sampler,274,296875,0.0-6.0-268.0,"""","""","""","""","""","""","""","""","""","""","""","""","2021-08-17 18:04:32",24.86.0.113,"Mozilla/5.0 (Windows NT 10.0; Win64; x64) AppleWebKit/537.36 (KHTML, like Gecko) Chrome/92.0.4515.159 Safari/537.36",WebKit,Chrome,92.0.4515.159,Windows,10.0,5f461dd6c139dd6b46c7596cbd57cd79
230,1,"""","""","""","""","""",sampler,275,296875,0.0-6.0-269.0,"""","""","""","""","""","""","""","""","""","""","""","""","2021-08-17 18:04:32",24.86.0.113,"Mozilla/5.0 (Windows NT 10.0; Win64; x64) AppleWebKit/537.36 (KHTML, like Gecko) Chrome/92.0.4515.159 Safari/537.36",WebKit,Chrome,92.0.4515.159,Windows,10.0,5f461dd6c139dd6b46c7596cbd57cd79
230,1,"""","""","""","""","""",sampler,276,296875,0.0-6.0-270.0,"""","""","""","""","""","""","""","""","""","""","""","""","2021-08-17 18:04:32",24.86.0.113,"Mozilla/5.0 (Windows NT 10.0; Win64; x64) AppleWebKit/537.36 (KHTML, like Gecko) Chrome/92.0.4515.159 Safari/537.36",WebKit,Chrome,92.0.4515.159,Windows,10.0,5f461dd6c139dd6b46c7596cbd57cd79
