run_id,condition,success,timeout,failed_images,failed_audio,failed_video,trial_type,trial_index,time_elapsed,internal_node_id,rt,stimulus,key_press,responses,view_history,correct,image_click,points,sd,points2,total_earn,button_pressed,recorded_at,ip,user_agent,device,browser,browser_version,platform,platform_version,source_code_version
200,1,true,false,"""","""","""",preload,0,248,0.0-0.0,"""","""","""","""","""","""","""","""","""","""","""","""","2021-08-13 21:13:22",141.134.106.114,"Mozilla/5.0 (Macintosh; Intel Mac OS X 10_15_7) AppleWebKit/537.36 (KHTML, like Gecko) Chrome/92.0.4515.131 Safari/537.36",Macintosh,Chrome,92.0.4515.131,"OS X",10_15_7,5f461dd6c139dd6b46c7596cbd57cd79
200,1,"""","""","""","""","""",html-keyboard-response,1,1902,0.0-1.0,1650,"<font size=15>Welcome to our experiment!</font><br><br><br><i> Press <b>space bar</b> to begin.</i>",32,"""","""","""","""","""","""","""","""","""","2021-08-13 21:13:22",141.134.106.114,"Mozilla/5.0 (Macintosh; Intel Mac OS X 10_15_7) AppleWebKit/537.36 (KHTML, like Gecko) Chrome/92.0.4515.131 Safari/537.36",Macintosh,Chrome,92.0.4515.131,"OS X",10_15_7,5f461dd6c139dd6b46c7596cbd57cd79
200,1,"""","""","""","""","""",survey-multi-choice,2,15134,0.0-2.0,13226,"""","""","{""Q0"":""Yes"",""Q1"":""Yes"",""Q2"":""Yes"",""Q3"":""Yes""}","""","""","""","""","""","""","""","""","2021-08-13 21:13:22",141.134.106.114,"Mozilla/5.0 (Macintosh; Intel Mac OS X 10_15_7) AppleWebKit/537.36 (KHTML, like Gecko) Chrome/92.0.4515.131 Safari/537.36",Macintosh,Chrome,92.0.4515.131,"OS X",10_15_7,5f461dd6c139dd6b46c7596cbd57cd79
200,1,"""","""","""","""","""",survey-html-form,3,22394,0.0-3.0,7254.5,"""","""","{""gender"":""female"",""age"":""21"",""hand"":""right"",""mail"":""6109a9ea99dda4227ac80f83""}","""","""","""","""","""","""","""","""","2021-08-13 21:13:22",141.134.106.114,"Mozilla/5.0 (Macintosh; Intel Mac OS X 10_15_7) AppleWebKit/537.36 (KHTML, like Gecko) Chrome/92.0.4515.131 Safari/537.36",Macintosh,Chrome,92.0.4515.131,"OS X",10_15_7,5f461dd6c139dd6b46c7596cbd57cd79
200,1,true,"""","""","""","""",fullscreen,4,27526,0.0-4.0,"""","""","""","""","""","""","""","""","""","""","""","""","2021-08-13 21:13:22",141.134.106.114,"Mozilla/5.0 (Macintosh; Intel Mac OS X 10_15_7) AppleWebKit/537.36 (KHTML, like Gecko) Chrome/92.0.4515.131 Safari/537.36",Macintosh,Chrome,92.0.4515.131,"OS X",10_15_7,5f461dd6c139dd6b46c7596cbd57cd79
200,1,"""","""","""","""","""",multikey-instructions,5,215991,0.0-5.0,188461,"""","""","""","[{""page_index"":0,""viewing_time"":42796},{""page_index"":1,""viewing_time"":16470},{""page_index"":2,""viewing_time"":17958},{""page_index"":3,""viewing_time"":9697},{""page_index"":4,""viewing_time"":10011},{""page_index"":5,""viewing_time"":11982},{""page_index"":6,""viewing_time"":7923},{""page_index"":7,""viewing_time"":5449},{""page_index"":8,""viewing_time"":18125},{""page_index"":9,""viewing_time"":11889},{""page_index"":8,""viewing_time"":6672},{""page_index"":9,""viewing_time"":2050},{""page_index"":10,""viewing_time"":16352},{""page_index"":11,""viewing_time"":11086}]","""","""","""","""","""","""","""","2021-08-13 21:13:22",141.134.106.114,"Mozilla/5.0 (Macintosh; Intel Mac OS X 10_15_7) AppleWebKit/537.36 (KHTML, like Gecko) Chrome/92.0.4515.131 Safari/537.36",Macintosh,Chrome,92.0.4515.131,"OS X",10_15_7,5f461dd6c139dd6b46c7596cbd57cd79
200,1,"""","""","""","""","""",sampler,6,230948,0.0-6.0-0.0,14552,img/Cobalt.png,"""","""","""",false,-1,12.652962938622546,10,"""","""","""","2021-08-13 21:13:22",141.134.106.114,"Mozilla/5.0 (Macintosh; Intel Mac OS X 10_15_7) AppleWebKit/537.36 (KHTML, like Gecko) Chrome/92.0.4515.131 Safari/537.36",Macintosh,Chrome,92.0.4515.131,"OS X",10_15_7,5f461dd6c139dd6b46c7596cbd57cd79
200,1,"""","""","""","""","""",sampler,7,230951,0.0-6.0-1.0,"""","""","""","""","""","""","""","""","""","""","""","""","2021-08-13 21:13:22",141.134.106.114,"Mozilla/5.0 (Macintosh; Intel Mac OS X 10_15_7) AppleWebKit/537.36 (KHTML, like Gecko) Chrome/92.0.4515.131 Safari/537.36",Macintosh,Chrome,92.0.4515.131,"OS X",10_15_7,5f461dd6c139dd6b46c7596cbd57cd79
200,1,"""","""","""","""","""",sampler,8,230952,0.0-6.0-2.0,"""","""","""","""","""","""","""","""","""","""","""","""","2021-08-13 21:13:22",141.134.106.114,"Mozilla/5.0 (Macintosh; Intel Mac OS X 10_15_7) AppleWebKit/537.36 (KHTML, like Gecko) Chrome/92.0.4515.131 Safari/537.36",Macintosh,Chrome,92.0.4515.131,"OS X",10_15_7,5f461dd6c139dd6b46c7596cbd57cd79
200,1,"""","""","""","""","""",sampler,9,230952,0.0-6.0-3.0,"""","""","""","""","""","""","""","""","""","""","""","""","2021-08-13 21:13:22",141.134.106.114,"Mozilla/5.0 (Macintosh; Intel Mac OS X 10_15_7) AppleWebKit/537.36 (KHTML, like Gecko) Chrome/92.0.4515.131 Safari/537.36",Macintosh,Chrome,92.0.4515.131,"OS X",10_15_7,5f461dd6c139dd6b46c7596cbd57cd79
200,1,"""","""","""","""","""",sampler,10,230952,0.0-6.0-4.0,"""","""","""","""","""","""","""","""","""","""","""","""","2021-08-13 21:13:22",141.134.106.114,"Mozilla/5.0 (Macintosh; Intel Mac OS X 10_15_7) AppleWebKit/537.36 (KHTML, like Gecko) Chrome/92.0.4515.131 Safari/537.36",Macintosh,Chrome,92.0.4515.131,"OS X",10_15_7,5f461dd6c139dd6b46c7596cbd57cd79
200,1,"""","""","""","""","""",sampler,11,230953,0.0-6.0-5.0,"""","""","""","""","""","""","""","""","""","""","""","""","2021-08-13 21:13:22",141.134.106.114,"Mozilla/5.0 (Macintosh; Intel Mac OS X 10_15_7) AppleWebKit/537.36 (KHTML, like Gecko) Chrome/92.0.4515.131 Safari/537.36",Macintosh,Chrome,92.0.4515.131,"OS X",10_15_7,5f461dd6c139dd6b46c7596cbd57cd79
200,1,"""","""","""","""","""",sampler,12,230953,0.0-6.0-6.0,"""","""","""","""","""","""","""","""","""","""","""","""","2021-08-13 21:13:22",141.134.106.114,"Mozilla/5.0 (Macintosh; Intel Mac OS X 10_15_7) AppleWebKit/537.36 (KHTML, like Gecko) Chrome/92.0.4515.131 Safari/537.36",Macintosh,Chrome,92.0.4515.131,"OS X",10_15_7,5f461dd6c139dd6b46c7596cbd57cd79
200,1,"""","""","""","""","""",sampler,13,230953,0.0-6.0-7.0,"""","""","""","""","""","""","""","""","""","""","""","""","2021-08-13 21:13:22",141.134.106.114,"Mozilla/5.0 (Macintosh; Intel Mac OS X 10_15_7) AppleWebKit/537.36 (KHTML, like Gecko) Chrome/92.0.4515.131 Safari/537.36",Macintosh,Chrome,92.0.4515.131,"OS X",10_15_7,5f461dd6c139dd6b46c7596cbd57cd79
200,1,"""","""","""","""","""",sampler,14,230954,0.0-6.0-8.0,"""","""","""","""","""","""","""","""","""","""","""","""","2021-08-13 21:13:22",141.134.106.114,"Mozilla/5.0 (Macintosh; Intel Mac OS X 10_15_7) AppleWebKit/537.36 (KHTML, like Gecko) Chrome/92.0.4515.131 Safari/537.36",Macintosh,Chrome,92.0.4515.131,"OS X",10_15_7,5f461dd6c139dd6b46c7596cbd57cd79
200,1,"""","""","""","""","""",sampler,15,230954,0.0-6.0-9.0,"""","""","""","""","""","""","""","""","""","""","""","""","2021-08-13 21:13:22",141.134.106.114,"Mozilla/5.0 (Macintosh; Intel Mac OS X 10_15_7) AppleWebKit/537.36 (KHTML, like Gecko) Chrome/92.0.4515.131 Safari/537.36",Macintosh,Chrome,92.0.4515.131,"OS X",10_15_7,5f461dd6c139dd6b46c7596cbd57cd79
200,1,"""","""","""","""","""",sampler,16,230954,0.0-6.0-10.0,"""","""","""","""","""","""","""","""","""","""","""","""","2021-08-13 21:13:22",141.134.106.114,"Mozilla/5.0 (Macintosh; Intel Mac OS X 10_15_7) AppleWebKit/537.36 (KHTML, like Gecko) Chrome/92.0.4515.131 Safari/537.36",Macintosh,Chrome,92.0.4515.131,"OS X",10_15_7,5f461dd6c139dd6b46c7596cbd57cd79
200,1,"""","""","""","""","""",sampler,17,230954,0.0-6.0-11.0,"""","""","""","""","""","""","""","""","""","""","""","""","2021-08-13 21:13:22",141.134.106.114,"Mozilla/5.0 (Macintosh; Intel Mac OS X 10_15_7) AppleWebKit/537.36 (KHTML, like Gecko) Chrome/92.0.4515.131 Safari/537.36",Macintosh,Chrome,92.0.4515.131,"OS X",10_15_7,5f461dd6c139dd6b46c7596cbd57cd79
200,1,"""","""","""","""","""",sampler,18,230954,0.0-6.0-12.0,"""","""","""","""","""","""","""","""","""","""","""","""","2021-08-13 21:13:22",141.134.106.114,"Mozilla/5.0 (Macintosh; Intel Mac OS X 10_15_7) AppleWebKit/537.36 (KHTML, like Gecko) Chrome/92.0.4515.131 Safari/537.36",Macintosh,Chrome,92.0.4515.131,"OS X",10_15_7,5f461dd6c139dd6b46c7596cbd57cd79
200,1,"""","""","""","""","""",sampler,19,230954,0.0-6.0-13.0,"""","""","""","""","""","""","""","""","""","""","""","""","2021-08-13 21:13:22",141.134.106.114,"Mozilla/5.0 (Macintosh; Intel Mac OS X 10_15_7) AppleWebKit/537.36 (KHTML, like Gecko) Chrome/92.0.4515.131 Safari/537.36",Macintosh,Chrome,92.0.4515.131,"OS X",10_15_7,5f461dd6c139dd6b46c7596cbd57cd79
200,1,"""","""","""","""","""",sampler,20,230955,0.0-6.0-14.0,"""","""","""","""","""","""","""","""","""","""","""","""","2021-08-13 21:13:22",141.134.106.114,"Mozilla/5.0 (Macintosh; Intel Mac OS X 10_15_7) AppleWebKit/537.36 (KHTML, like Gecko) Chrome/92.0.4515.131 Safari/537.36",Macintosh,Chrome,92.0.4515.131,"OS X",10_15_7,5f461dd6c139dd6b46c7596cbd57cd79
200,1,"""","""","""","""","""",sampler,21,230955,0.0-6.0-15.0,"""","""","""","""","""","""","""","""","""","""","""","""","2021-08-13 21:13:22",141.134.106.114,"Mozilla/5.0 (Macintosh; Intel Mac OS X 10_15_7) AppleWebKit/537.36 (KHTML, like Gecko) Chrome/92.0.4515.131 Safari/537.36",Macintosh,Chrome,92.0.4515.131,"OS X",10_15_7,5f461dd6c139dd6b46c7596cbd57cd79
200,1,"""","""","""","""","""",sampler,22,230955,0.0-6.0-16.0,"""","""","""","""","""","""","""","""","""","""","""","""","2021-08-13 21:13:22",141.134.106.114,"Mozilla/5.0 (Macintosh; Intel Mac OS X 10_15_7) AppleWebKit/537.36 (KHTML, like Gecko) Chrome/92.0.4515.131 Safari/537.36",Macintosh,Chrome,92.0.4515.131,"OS X",10_15_7,5f461dd6c139dd6b46c7596cbd57cd79
200,1,"""","""","""","""","""",sampler,23,230955,0.0-6.0-17.0,"""","""","""","""","""","""","""","""","""","""","""","""","2021-08-13 21:13:22",141.134.106.114,"Mozilla/5.0 (Macintosh; Intel Mac OS X 10_15_7) AppleWebKit/537.36 (KHTML, like Gecko) Chrome/92.0.4515.131 Safari/537.36",Macintosh,Chrome,92.0.4515.131,"OS X",10_15_7,5f461dd6c139dd6b46c7596cbd57cd79
200,1,"""","""","""","""","""",sampler,24,230955,0.0-6.0-18.0,"""","""","""","""","""","""","""","""","""","""","""","""","2021-08-13 21:13:22",141.134.106.114,"Mozilla/5.0 (Macintosh; Intel Mac OS X 10_15_7) AppleWebKit/537.36 (KHTML, like Gecko) Chrome/92.0.4515.131 Safari/537.36",Macintosh,Chrome,92.0.4515.131,"OS X",10_15_7,5f461dd6c139dd6b46c7596cbd57cd79
200,1,"""","""","""","""","""",sampler,25,230955,0.0-6.0-19.0,"""","""","""","""","""","""","""","""","""","""","""","""","2021-08-13 21:13:22",141.134.106.114,"Mozilla/5.0 (Macintosh; Intel Mac OS X 10_15_7) AppleWebKit/537.36 (KHTML, like Gecko) Chrome/92.0.4515.131 Safari/537.36",Macintosh,Chrome,92.0.4515.131,"OS X",10_15_7,5f461dd6c139dd6b46c7596cbd57cd79
200,1,"""","""","""","""","""",sampler,26,230955,0.0-6.0-20.0,"""","""","""","""","""","""","""","""","""","""","""","""","2021-08-13 21:13:22",141.134.106.114,"Mozilla/5.0 (Macintosh; Intel Mac OS X 10_15_7) AppleWebKit/537.36 (KHTML, like Gecko) Chrome/92.0.4515.131 Safari/537.36",Macintosh,Chrome,92.0.4515.131,"OS X",10_15_7,5f461dd6c139dd6b46c7596cbd57cd79
200,1,"""","""","""","""","""",sampler,27,230956,0.0-6.0-21.0,"""","""","""","""","""","""","""","""","""","""","""","""","2021-08-13 21:13:22",141.134.106.114,"Mozilla/5.0 (Macintosh; Intel Mac OS X 10_15_7) AppleWebKit/537.36 (KHTML, like Gecko) Chrome/92.0.4515.131 Safari/537.36",Macintosh,Chrome,92.0.4515.131,"OS X",10_15_7,5f461dd6c139dd6b46c7596cbd57cd79
200,1,"""","""","""","""","""",sampler,28,230956,0.0-6.0-22.0,"""","""","""","""","""","""","""","""","""","""","""","""","2021-08-13 21:13:22",141.134.106.114,"Mozilla/5.0 (Macintosh; Intel Mac OS X 10_15_7) AppleWebKit/537.36 (KHTML, like Gecko) Chrome/92.0.4515.131 Safari/537.36",Macintosh,Chrome,92.0.4515.131,"OS X",10_15_7,5f461dd6c139dd6b46c7596cbd57cd79
200,1,"""","""","""","""","""",sampler,29,230956,0.0-6.0-23.0,"""","""","""","""","""","""","""","""","""","""","""","""","2021-08-13 21:13:22",141.134.106.114,"Mozilla/5.0 (Macintosh; Intel Mac OS X 10_15_7) AppleWebKit/537.36 (KHTML, like Gecko) Chrome/92.0.4515.131 Safari/537.36",Macintosh,Chrome,92.0.4515.131,"OS X",10_15_7,5f461dd6c139dd6b46c7596cbd57cd79
200,1,"""","""","""","""","""",sampler,30,230956,0.0-6.0-24.0,"""","""","""","""","""","""","""","""","""","""","""","""","2021-08-13 21:13:22",141.134.106.114,"Mozilla/5.0 (Macintosh; Intel Mac OS X 10_15_7) AppleWebKit/537.36 (KHTML, like Gecko) Chrome/92.0.4515.131 Safari/537.36",Macintosh,Chrome,92.0.4515.131,"OS X",10_15_7,5f461dd6c139dd6b46c7596cbd57cd79
200,1,"""","""","""","""","""",sampler,31,230956,0.0-6.0-25.0,"""","""","""","""","""","""","""","""","""","""","""","""","2021-08-13 21:13:22",141.134.106.114,"Mozilla/5.0 (Macintosh; Intel Mac OS X 10_15_7) AppleWebKit/537.36 (KHTML, like Gecko) Chrome/92.0.4515.131 Safari/537.36",Macintosh,Chrome,92.0.4515.131,"OS X",10_15_7,5f461dd6c139dd6b46c7596cbd57cd79
200,1,"""","""","""","""","""",sampler,32,230957,0.0-6.0-26.0,"""","""","""","""","""","""","""","""","""","""","""","""","2021-08-13 21:13:22",141.134.106.114,"Mozilla/5.0 (Macintosh; Intel Mac OS X 10_15_7) AppleWebKit/537.36 (KHTML, like Gecko) Chrome/92.0.4515.131 Safari/537.36",Macintosh,Chrome,92.0.4515.131,"OS X",10_15_7,5f461dd6c139dd6b46c7596cbd57cd79
200,1,"""","""","""","""","""",sampler,33,230957,0.0-6.0-27.0,"""","""","""","""","""","""","""","""","""","""","""","""","2021-08-13 21:13:22",141.134.106.114,"Mozilla/5.0 (Macintosh; Intel Mac OS X 10_15_7) AppleWebKit/537.36 (KHTML, like Gecko) Chrome/92.0.4515.131 Safari/537.36",Macintosh,Chrome,92.0.4515.131,"OS X",10_15_7,5f461dd6c139dd6b46c7596cbd57cd79
200,1,"""","""","""","""","""",sampler,34,230957,0.0-6.0-28.0,"""","""","""","""","""","""","""","""","""","""","""","""","2021-08-13 21:13:22",141.134.106.114,"Mozilla/5.0 (Macintosh; Intel Mac OS X 10_15_7) AppleWebKit/537.36 (KHTML, like Gecko) Chrome/92.0.4515.131 Safari/537.36",Macintosh,Chrome,92.0.4515.131,"OS X",10_15_7,5f461dd6c139dd6b46c7596cbd57cd79
200,1,"""","""","""","""","""",sampler,35,230957,0.0-6.0-29.0,"""","""","""","""","""","""","""","""","""","""","""","""","2021-08-13 21:13:22",141.134.106.114,"Mozilla/5.0 (Macintosh; Intel Mac OS X 10_15_7) AppleWebKit/537.36 (KHTML, like Gecko) Chrome/92.0.4515.131 Safari/537.36",Macintosh,Chrome,92.0.4515.131,"OS X",10_15_7,5f461dd6c139dd6b46c7596cbd57cd79
200,1,"""","""","""","""","""",sampler,36,230957,0.0-6.0-30.0,"""","""","""","""","""","""","""","""","""","""","""","""","2021-08-13 21:13:22",141.134.106.114,"Mozilla/5.0 (Macintosh; Intel Mac OS X 10_15_7) AppleWebKit/537.36 (KHTML, like Gecko) Chrome/92.0.4515.131 Safari/537.36",Macintosh,Chrome,92.0.4515.131,"OS X",10_15_7,5f461dd6c139dd6b46c7596cbd57cd79
200,1,"""","""","""","""","""",sampler,37,230957,0.0-6.0-31.0,"""","""","""","""","""","""","""","""","""","""","""","""","2021-08-13 21:13:22",141.134.106.114,"Mozilla/5.0 (Macintosh; Intel Mac OS X 10_15_7) AppleWebKit/537.36 (KHTML, like Gecko) Chrome/92.0.4515.131 Safari/537.36",Macintosh,Chrome,92.0.4515.131,"OS X",10_15_7,5f461dd6c139dd6b46c7596cbd57cd79
200,1,"""","""","""","""","""",sampler,38,230957,0.0-6.0-32.0,"""","""","""","""","""","""","""","""","""","""","""","""","2021-08-13 21:13:22",141.134.106.114,"Mozilla/5.0 (Macintosh; Intel Mac OS X 10_15_7) AppleWebKit/537.36 (KHTML, like Gecko) Chrome/92.0.4515.131 Safari/537.36",Macintosh,Chrome,92.0.4515.131,"OS X",10_15_7,5f461dd6c139dd6b46c7596cbd57cd79
200,1,"""","""","""","""","""",sampler,39,230958,0.0-6.0-33.0,"""","""","""","""","""","""","""","""","""","""","""","""","2021-08-13 21:13:22",141.134.106.114,"Mozilla/5.0 (Macintosh; Intel Mac OS X 10_15_7) AppleWebKit/537.36 (KHTML, like Gecko) Chrome/92.0.4515.131 Safari/537.36",Macintosh,Chrome,92.0.4515.131,"OS X",10_15_7,5f461dd6c139dd6b46c7596cbd57cd79
200,1,"""","""","""","""","""",sampler,40,230958,0.0-6.0-34.0,"""","""","""","""","""","""","""","""","""","""","""","""","2021-08-13 21:13:22",141.134.106.114,"Mozilla/5.0 (Macintosh; Intel Mac OS X 10_15_7) AppleWebKit/537.36 (KHTML, like Gecko) Chrome/92.0.4515.131 Safari/537.36",Macintosh,Chrome,92.0.4515.131,"OS X",10_15_7,5f461dd6c139dd6b46c7596cbd57cd79
200,1,"""","""","""","""","""",sampler,41,230958,0.0-6.0-35.0,"""","""","""","""","""","""","""","""","""","""","""","""","2021-08-13 21:13:22",141.134.106.114,"Mozilla/5.0 (Macintosh; Intel Mac OS X 10_15_7) AppleWebKit/537.36 (KHTML, like Gecko) Chrome/92.0.4515.131 Safari/537.36",Macintosh,Chrome,92.0.4515.131,"OS X",10_15_7,5f461dd6c139dd6b46c7596cbd57cd79
200,1,"""","""","""","""","""",sampler,42,230958,0.0-6.0-36.0,"""","""","""","""","""","""","""","""","""","""","""","""","2021-08-13 21:13:22",141.134.106.114,"Mozilla/5.0 (Macintosh; Intel Mac OS X 10_15_7) AppleWebKit/537.36 (KHTML, like Gecko) Chrome/92.0.4515.131 Safari/537.36",Macintosh,Chrome,92.0.4515.131,"OS X",10_15_7,5f461dd6c139dd6b46c7596cbd57cd79
200,1,"""","""","""","""","""",sampler,43,230958,0.0-6.0-37.0,"""","""","""","""","""","""","""","""","""","""","""","""","2021-08-13 21:13:22",141.134.106.114,"Mozilla/5.0 (Macintosh; Intel Mac OS X 10_15_7) AppleWebKit/537.36 (KHTML, like Gecko) Chrome/92.0.4515.131 Safari/537.36",Macintosh,Chrome,92.0.4515.131,"OS X",10_15_7,5f461dd6c139dd6b46c7596cbd57cd79
200,1,"""","""","""","""","""",sampler,44,230958,0.0-6.0-38.0,"""","""","""","""","""","""","""","""","""","""","""","""","2021-08-13 21:13:22",141.134.106.114,"Mozilla/5.0 (Macintosh; Intel Mac OS X 10_15_7) AppleWebKit/537.36 (KHTML, like Gecko) Chrome/92.0.4515.131 Safari/537.36",Macintosh,Chrome,92.0.4515.131,"OS X",10_15_7,5f461dd6c139dd6b46c7596cbd57cd79
200,1,"""","""","""","""","""",sampler,45,230958,0.0-6.0-39.0,"""","""","""","""","""","""","""","""","""","""","""","""","2021-08-13 21:13:22",141.134.106.114,"Mozilla/5.0 (Macintosh; Intel Mac OS X 10_15_7) AppleWebKit/537.36 (KHTML, like Gecko) Chrome/92.0.4515.131 Safari/537.36",Macintosh,Chrome,92.0.4515.131,"OS X",10_15_7,5f461dd6c139dd6b46c7596cbd57cd79
200,1,"""","""","""","""","""",sampler,46,230959,0.0-6.0-40.0,"""","""","""","""","""","""","""","""","""","""","""","""","2021-08-13 21:13:22",141.134.106.114,"Mozilla/5.0 (Macintosh; Intel Mac OS X 10_15_7) AppleWebKit/537.36 (KHTML, like Gecko) Chrome/92.0.4515.131 Safari/537.36",Macintosh,Chrome,92.0.4515.131,"OS X",10_15_7,5f461dd6c139dd6b46c7596cbd57cd79
200,1,"""","""","""","""","""",sampler,47,230959,0.0-6.0-41.0,"""","""","""","""","""","""","""","""","""","""","""","""","2021-08-13 21:13:22",141.134.106.114,"Mozilla/5.0 (Macintosh; Intel Mac OS X 10_15_7) AppleWebKit/537.36 (KHTML, like Gecko) Chrome/92.0.4515.131 Safari/537.36",Macintosh,Chrome,92.0.4515.131,"OS X",10_15_7,5f461dd6c139dd6b46c7596cbd57cd79
200,1,"""","""","""","""","""",sampler,48,230959,0.0-6.0-42.0,"""","""","""","""","""","""","""","""","""","""","""","""","2021-08-13 21:13:22",141.134.106.114,"Mozilla/5.0 (Macintosh; Intel Mac OS X 10_15_7) AppleWebKit/537.36 (KHTML, like Gecko) Chrome/92.0.4515.131 Safari/537.36",Macintosh,Chrome,92.0.4515.131,"OS X",10_15_7,5f461dd6c139dd6b46c7596cbd57cd79
200,1,"""","""","""","""","""",sampler,49,230959,0.0-6.0-43.0,"""","""","""","""","""","""","""","""","""","""","""","""","2021-08-13 21:13:22",141.134.106.114,"Mozilla/5.0 (Macintosh; Intel Mac OS X 10_15_7) AppleWebKit/537.36 (KHTML, like Gecko) Chrome/92.0.4515.131 Safari/537.36",Macintosh,Chrome,92.0.4515.131,"OS X",10_15_7,5f461dd6c139dd6b46c7596cbd57cd79
200,1,"""","""","""","""","""",sampler,50,230959,0.0-6.0-44.0,"""","""","""","""","""","""","""","""","""","""","""","""","2021-08-13 21:13:22",141.134.106.114,"Mozilla/5.0 (Macintosh; Intel Mac OS X 10_15_7) AppleWebKit/537.36 (KHTML, like Gecko) Chrome/92.0.4515.131 Safari/537.36",Macintosh,Chrome,92.0.4515.131,"OS X",10_15_7,5f461dd6c139dd6b46c7596cbd57cd79
200,1,"""","""","""","""","""",sampler,51,230959,0.0-6.0-45.0,"""","""","""","""","""","""","""","""","""","""","""","""","2021-08-13 21:13:22",141.134.106.114,"Mozilla/5.0 (Macintosh; Intel Mac OS X 10_15_7) AppleWebKit/537.36 (KHTML, like Gecko) Chrome/92.0.4515.131 Safari/537.36",Macintosh,Chrome,92.0.4515.131,"OS X",10_15_7,5f461dd6c139dd6b46c7596cbd57cd79
200,1,"""","""","""","""","""",sampler,52,230959,0.0-6.0-46.0,"""","""","""","""","""","""","""","""","""","""","""","""","2021-08-13 21:13:22",141.134.106.114,"Mozilla/5.0 (Macintosh; Intel Mac OS X 10_15_7) AppleWebKit/537.36 (KHTML, like Gecko) Chrome/92.0.4515.131 Safari/537.36",Macintosh,Chrome,92.0.4515.131,"OS X",10_15_7,5f461dd6c139dd6b46c7596cbd57cd79
200,1,"""","""","""","""","""",sampler,53,230959,0.0-6.0-47.0,"""","""","""","""","""","""","""","""","""","""","""","""","2021-08-13 21:13:22",141.134.106.114,"Mozilla/5.0 (Macintosh; Intel Mac OS X 10_15_7) AppleWebKit/537.36 (KHTML, like Gecko) Chrome/92.0.4515.131 Safari/537.36",Macintosh,Chrome,92.0.4515.131,"OS X",10_15_7,5f461dd6c139dd6b46c7596cbd57cd79
200,1,"""","""","""","""","""",sampler,54,230960,0.0-6.0-48.0,"""","""","""","""","""","""","""","""","""","""","""","""","2021-08-13 21:13:22",141.134.106.114,"Mozilla/5.0 (Macintosh; Intel Mac OS X 10_15_7) AppleWebKit/537.36 (KHTML, like Gecko) Chrome/92.0.4515.131 Safari/537.36",Macintosh,Chrome,92.0.4515.131,"OS X",10_15_7,5f461dd6c139dd6b46c7596cbd57cd79
200,1,"""","""","""","""","""",sampler,55,230960,0.0-6.0-49.0,"""","""","""","""","""","""","""","""","""","""","""","""","2021-08-13 21:13:22",141.134.106.114,"Mozilla/5.0 (Macintosh; Intel Mac OS X 10_15_7) AppleWebKit/537.36 (KHTML, like Gecko) Chrome/92.0.4515.131 Safari/537.36",Macintosh,Chrome,92.0.4515.131,"OS X",10_15_7,5f461dd6c139dd6b46c7596cbd57cd79
200,1,"""","""","""","""","""",sampler,56,230960,0.0-6.0-50.0,"""","""","""","""","""","""","""","""","""","""","""","""","2021-08-13 21:13:22",141.134.106.114,"Mozilla/5.0 (Macintosh; Intel Mac OS X 10_15_7) AppleWebKit/537.36 (KHTML, like Gecko) Chrome/92.0.4515.131 Safari/537.36",Macintosh,Chrome,92.0.4515.131,"OS X",10_15_7,5f461dd6c139dd6b46c7596cbd57cd79
200,1,"""","""","""","""","""",sampler,57,230960,0.0-6.0-51.0,"""","""","""","""","""","""","""","""","""","""","""","""","2021-08-13 21:13:22",141.134.106.114,"Mozilla/5.0 (Macintosh; Intel Mac OS X 10_15_7) AppleWebKit/537.36 (KHTML, like Gecko) Chrome/92.0.4515.131 Safari/537.36",Macintosh,Chrome,92.0.4515.131,"OS X",10_15_7,5f461dd6c139dd6b46c7596cbd57cd79
200,1,"""","""","""","""","""",sampler,58,230960,0.0-6.0-52.0,"""","""","""","""","""","""","""","""","""","""","""","""","2021-08-13 21:13:22",141.134.106.114,"Mozilla/5.0 (Macintosh; Intel Mac OS X 10_15_7) AppleWebKit/537.36 (KHTML, like Gecko) Chrome/92.0.4515.131 Safari/537.36",Macintosh,Chrome,92.0.4515.131,"OS X",10_15_7,5f461dd6c139dd6b46c7596cbd57cd79
200,1,"""","""","""","""","""",sampler,59,230960,0.0-6.0-53.0,"""","""","""","""","""","""","""","""","""","""","""","""","2021-08-13 21:13:22",141.134.106.114,"Mozilla/5.0 (Macintosh; Intel Mac OS X 10_15_7) AppleWebKit/537.36 (KHTML, like Gecko) Chrome/92.0.4515.131 Safari/537.36",Macintosh,Chrome,92.0.4515.131,"OS X",10_15_7,5f461dd6c139dd6b46c7596cbd57cd79
200,1,"""","""","""","""","""",sampler,60,230960,0.0-6.0-54.0,"""","""","""","""","""","""","""","""","""","""","""","""","2021-08-13 21:13:22",141.134.106.114,"Mozilla/5.0 (Macintosh; Intel Mac OS X 10_15_7) AppleWebKit/537.36 (KHTML, like Gecko) Chrome/92.0.4515.131 Safari/537.36",Macintosh,Chrome,92.0.4515.131,"OS X",10_15_7,5f461dd6c139dd6b46c7596cbd57cd79
200,1,"""","""","""","""","""",sampler,61,230961,0.0-6.0-55.0,"""","""","""","""","""","""","""","""","""","""","""","""","2021-08-13 21:13:22",141.134.106.114,"Mozilla/5.0 (Macintosh; Intel Mac OS X 10_15_7) AppleWebKit/537.36 (KHTML, like Gecko) Chrome/92.0.4515.131 Safari/537.36",Macintosh,Chrome,92.0.4515.131,"OS X",10_15_7,5f461dd6c139dd6b46c7596cbd57cd79
200,1,"""","""","""","""","""",sampler,62,230961,0.0-6.0-56.0,"""","""","""","""","""","""","""","""","""","""","""","""","2021-08-13 21:13:22",141.134.106.114,"Mozilla/5.0 (Macintosh; Intel Mac OS X 10_15_7) AppleWebKit/537.36 (KHTML, like Gecko) Chrome/92.0.4515.131 Safari/537.36",Macintosh,Chrome,92.0.4515.131,"OS X",10_15_7,5f461dd6c139dd6b46c7596cbd57cd79
200,1,"""","""","""","""","""",sampler,63,230961,0.0-6.0-57.0,"""","""","""","""","""","""","""","""","""","""","""","""","2021-08-13 21:13:22",141.134.106.114,"Mozilla/5.0 (Macintosh; Intel Mac OS X 10_15_7) AppleWebKit/537.36 (KHTML, like Gecko) Chrome/92.0.4515.131 Safari/537.36",Macintosh,Chrome,92.0.4515.131,"OS X",10_15_7,5f461dd6c139dd6b46c7596cbd57cd79
200,1,"""","""","""","""","""",sampler,64,230961,0.0-6.0-58.0,"""","""","""","""","""","""","""","""","""","""","""","""","2021-08-13 21:13:22",141.134.106.114,"Mozilla/5.0 (Macintosh; Intel Mac OS X 10_15_7) AppleWebKit/537.36 (KHTML, like Gecko) Chrome/92.0.4515.131 Safari/537.36",Macintosh,Chrome,92.0.4515.131,"OS X",10_15_7,5f461dd6c139dd6b46c7596cbd57cd79
200,1,"""","""","""","""","""",sampler,65,230961,0.0-6.0-59.0,"""","""","""","""","""","""","""","""","""","""","""","""","2021-08-13 21:13:22",141.134.106.114,"Mozilla/5.0 (Macintosh; Intel Mac OS X 10_15_7) AppleWebKit/537.36 (KHTML, like Gecko) Chrome/92.0.4515.131 Safari/537.36",Macintosh,Chrome,92.0.4515.131,"OS X",10_15_7,5f461dd6c139dd6b46c7596cbd57cd79
200,1,"""","""","""","""","""",sampler,66,230961,0.0-6.0-60.0,"""","""","""","""","""","""","""","""","""","""","""","""","2021-08-13 21:13:22",141.134.106.114,"Mozilla/5.0 (Macintosh; Intel Mac OS X 10_15_7) AppleWebKit/537.36 (KHTML, like Gecko) Chrome/92.0.4515.131 Safari/537.36",Macintosh,Chrome,92.0.4515.131,"OS X",10_15_7,5f461dd6c139dd6b46c7596cbd57cd79
200,1,"""","""","""","""","""",sampler,67,230961,0.0-6.0-61.0,"""","""","""","""","""","""","""","""","""","""","""","""","2021-08-13 21:13:22",141.134.106.114,"Mozilla/5.0 (Macintosh; Intel Mac OS X 10_15_7) AppleWebKit/537.36 (KHTML, like Gecko) Chrome/92.0.4515.131 Safari/537.36",Macintosh,Chrome,92.0.4515.131,"OS X",10_15_7,5f461dd6c139dd6b46c7596cbd57cd79
200,1,"""","""","""","""","""",sampler,68,230962,0.0-6.0-62.0,"""","""","""","""","""","""","""","""","""","""","""","""","2021-08-13 21:13:22",141.134.106.114,"Mozilla/5.0 (Macintosh; Intel Mac OS X 10_15_7) AppleWebKit/537.36 (KHTML, like Gecko) Chrome/92.0.4515.131 Safari/537.36",Macintosh,Chrome,92.0.4515.131,"OS X",10_15_7,5f461dd6c139dd6b46c7596cbd57cd79
200,1,"""","""","""","""","""",sampler,69,230962,0.0-6.0-63.0,"""","""","""","""","""","""","""","""","""","""","""","""","2021-08-13 21:13:22",141.134.106.114,"Mozilla/5.0 (Macintosh; Intel Mac OS X 10_15_7) AppleWebKit/537.36 (KHTML, like Gecko) Chrome/92.0.4515.131 Safari/537.36",Macintosh,Chrome,92.0.4515.131,"OS X",10_15_7,5f461dd6c139dd6b46c7596cbd57cd79
200,1,"""","""","""","""","""",sampler,70,230963,0.0-6.0-64.0,"""","""","""","""","""","""","""","""","""","""","""","""","2021-08-13 21:13:22",141.134.106.114,"Mozilla/5.0 (Macintosh; Intel Mac OS X 10_15_7) AppleWebKit/537.36 (KHTML, like Gecko) Chrome/92.0.4515.131 Safari/537.36",Macintosh,Chrome,92.0.4515.131,"OS X",10_15_7,5f461dd6c139dd6b46c7596cbd57cd79
200,1,"""","""","""","""","""",sampler,71,230963,0.0-6.0-65.0,"""","""","""","""","""","""","""","""","""","""","""","""","2021-08-13 21:13:22",141.134.106.114,"Mozilla/5.0 (Macintosh; Intel Mac OS X 10_15_7) AppleWebKit/537.36 (KHTML, like Gecko) Chrome/92.0.4515.131 Safari/537.36",Macintosh,Chrome,92.0.4515.131,"OS X",10_15_7,5f461dd6c139dd6b46c7596cbd57cd79
200,1,"""","""","""","""","""",sampler,72,230963,0.0-6.0-66.0,"""","""","""","""","""","""","""","""","""","""","""","""","2021-08-13 21:13:22",141.134.106.114,"Mozilla/5.0 (Macintosh; Intel Mac OS X 10_15_7) AppleWebKit/537.36 (KHTML, like Gecko) Chrome/92.0.4515.131 Safari/537.36",Macintosh,Chrome,92.0.4515.131,"OS X",10_15_7,5f461dd6c139dd6b46c7596cbd57cd79
200,1,"""","""","""","""","""",sampler,73,230963,0.0-6.0-67.0,"""","""","""","""","""","""","""","""","""","""","""","""","2021-08-13 21:13:22",141.134.106.114,"Mozilla/5.0 (Macintosh; Intel Mac OS X 10_15_7) AppleWebKit/537.36 (KHTML, like Gecko) Chrome/92.0.4515.131 Safari/537.36",Macintosh,Chrome,92.0.4515.131,"OS X",10_15_7,5f461dd6c139dd6b46c7596cbd57cd79
200,1,"""","""","""","""","""",sampler,74,230964,0.0-6.0-68.0,"""","""","""","""","""","""","""","""","""","""","""","""","2021-08-13 21:13:22",141.134.106.114,"Mozilla/5.0 (Macintosh; Intel Mac OS X 10_15_7) AppleWebKit/537.36 (KHTML, like Gecko) Chrome/92.0.4515.131 Safari/537.36",Macintosh,Chrome,92.0.4515.131,"OS X",10_15_7,5f461dd6c139dd6b46c7596cbd57cd79
200,1,"""","""","""","""","""",sampler,75,230964,0.0-6.0-69.0,"""","""","""","""","""","""","""","""","""","""","""","""","2021-08-13 21:13:22",141.134.106.114,"Mozilla/5.0 (Macintosh; Intel Mac OS X 10_15_7) AppleWebKit/537.36 (KHTML, like Gecko) Chrome/92.0.4515.131 Safari/537.36",Macintosh,Chrome,92.0.4515.131,"OS X",10_15_7,5f461dd6c139dd6b46c7596cbd57cd79
200,1,"""","""","""","""","""",sampler,76,230964,0.0-6.0-70.0,"""","""","""","""","""","""","""","""","""","""","""","""","2021-08-13 21:13:22",141.134.106.114,"Mozilla/5.0 (Macintosh; Intel Mac OS X 10_15_7) AppleWebKit/537.36 (KHTML, like Gecko) Chrome/92.0.4515.131 Safari/537.36",Macintosh,Chrome,92.0.4515.131,"OS X",10_15_7,5f461dd6c139dd6b46c7596cbd57cd79
200,1,"""","""","""","""","""",sampler,77,230964,0.0-6.0-71.0,"""","""","""","""","""","""","""","""","""","""","""","""","2021-08-13 21:13:22",141.134.106.114,"Mozilla/5.0 (Macintosh; Intel Mac OS X 10_15_7) AppleWebKit/537.36 (KHTML, like Gecko) Chrome/92.0.4515.131 Safari/537.36",Macintosh,Chrome,92.0.4515.131,"OS X",10_15_7,5f461dd6c139dd6b46c7596cbd57cd79
200,1,"""","""","""","""","""",sampler,78,230964,0.0-6.0-72.0,"""","""","""","""","""","""","""","""","""","""","""","""","2021-08-13 21:13:22",141.134.106.114,"Mozilla/5.0 (Macintosh; Intel Mac OS X 10_15_7) AppleWebKit/537.36 (KHTML, like Gecko) Chrome/92.0.4515.131 Safari/537.36",Macintosh,Chrome,92.0.4515.131,"OS X",10_15_7,5f461dd6c139dd6b46c7596cbd57cd79
200,1,"""","""","""","""","""",sampler,79,230964,0.0-6.0-73.0,"""","""","""","""","""","""","""","""","""","""","""","""","2021-08-13 21:13:22",141.134.106.114,"Mozilla/5.0 (Macintosh; Intel Mac OS X 10_15_7) AppleWebKit/537.36 (KHTML, like Gecko) Chrome/92.0.4515.131 Safari/537.36",Macintosh,Chrome,92.0.4515.131,"OS X",10_15_7,5f461dd6c139dd6b46c7596cbd57cd79
200,1,"""","""","""","""","""",sampler,80,230964,0.0-6.0-74.0,"""","""","""","""","""","""","""","""","""","""","""","""","2021-08-13 21:13:22",141.134.106.114,"Mozilla/5.0 (Macintosh; Intel Mac OS X 10_15_7) AppleWebKit/537.36 (KHTML, like Gecko) Chrome/92.0.4515.131 Safari/537.36",Macintosh,Chrome,92.0.4515.131,"OS X",10_15_7,5f461dd6c139dd6b46c7596cbd57cd79
200,1,"""","""","""","""","""",sampler,81,230964,0.0-6.0-75.0,"""","""","""","""","""","""","""","""","""","""","""","""","2021-08-13 21:13:22",141.134.106.114,"Mozilla/5.0 (Macintosh; Intel Mac OS X 10_15_7) AppleWebKit/537.36 (KHTML, like Gecko) Chrome/92.0.4515.131 Safari/537.36",Macintosh,Chrome,92.0.4515.131,"OS X",10_15_7,5f461dd6c139dd6b46c7596cbd57cd79
200,1,"""","""","""","""","""",sampler,82,230965,0.0-6.0-76.0,"""","""","""","""","""","""","""","""","""","""","""","""","2021-08-13 21:13:22",141.134.106.114,"Mozilla/5.0 (Macintosh; Intel Mac OS X 10_15_7) AppleWebKit/537.36 (KHTML, like Gecko) Chrome/92.0.4515.131 Safari/537.36",Macintosh,Chrome,92.0.4515.131,"OS X",10_15_7,5f461dd6c139dd6b46c7596cbd57cd79
200,1,"""","""","""","""","""",sampler,83,230965,0.0-6.0-77.0,"""","""","""","""","""","""","""","""","""","""","""","""","2021-08-13 21:13:22",141.134.106.114,"Mozilla/5.0 (Macintosh; Intel Mac OS X 10_15_7) AppleWebKit/537.36 (KHTML, like Gecko) Chrome/92.0.4515.131 Safari/537.36",Macintosh,Chrome,92.0.4515.131,"OS X",10_15_7,5f461dd6c139dd6b46c7596cbd57cd79
200,1,"""","""","""","""","""",sampler,84,230965,0.0-6.0-78.0,"""","""","""","""","""","""","""","""","""","""","""","""","2021-08-13 21:13:22",141.134.106.114,"Mozilla/5.0 (Macintosh; Intel Mac OS X 10_15_7) AppleWebKit/537.36 (KHTML, like Gecko) Chrome/92.0.4515.131 Safari/537.36",Macintosh,Chrome,92.0.4515.131,"OS X",10_15_7,5f461dd6c139dd6b46c7596cbd57cd79
200,1,"""","""","""","""","""",sampler,85,230966,0.0-6.0-79.0,"""","""","""","""","""","""","""","""","""","""","""","""","2021-08-13 21:13:22",141.134.106.114,"Mozilla/5.0 (Macintosh; Intel Mac OS X 10_15_7) AppleWebKit/537.36 (KHTML, like Gecko) Chrome/92.0.4515.131 Safari/537.36",Macintosh,Chrome,92.0.4515.131,"OS X",10_15_7,5f461dd6c139dd6b46c7596cbd57cd79
200,1,"""","""","""","""","""",sampler,86,230966,0.0-6.0-80.0,"""","""","""","""","""","""","""","""","""","""","""","""","2021-08-13 21:13:22",141.134.106.114,"Mozilla/5.0 (Macintosh; Intel Mac OS X 10_15_7) AppleWebKit/537.36 (KHTML, like Gecko) Chrome/92.0.4515.131 Safari/537.36",Macintosh,Chrome,92.0.4515.131,"OS X",10_15_7,5f461dd6c139dd6b46c7596cbd57cd79
200,1,"""","""","""","""","""",sampler,87,230966,0.0-6.0-81.0,"""","""","""","""","""","""","""","""","""","""","""","""","2021-08-13 21:13:22",141.134.106.114,"Mozilla/5.0 (Macintosh; Intel Mac OS X 10_15_7) AppleWebKit/537.36 (KHTML, like Gecko) Chrome/92.0.4515.131 Safari/537.36",Macintosh,Chrome,92.0.4515.131,"OS X",10_15_7,5f461dd6c139dd6b46c7596cbd57cd79
200,1,"""","""","""","""","""",sampler,88,230966,0.0-6.0-82.0,"""","""","""","""","""","""","""","""","""","""","""","""","2021-08-13 21:13:22",141.134.106.114,"Mozilla/5.0 (Macintosh; Intel Mac OS X 10_15_7) AppleWebKit/537.36 (KHTML, like Gecko) Chrome/92.0.4515.131 Safari/537.36",Macintosh,Chrome,92.0.4515.131,"OS X",10_15_7,5f461dd6c139dd6b46c7596cbd57cd79
200,1,"""","""","""","""","""",sampler,89,230966,0.0-6.0-83.0,"""","""","""","""","""","""","""","""","""","""","""","""","2021-08-13 21:13:22",141.134.106.114,"Mozilla/5.0 (Macintosh; Intel Mac OS X 10_15_7) AppleWebKit/537.36 (KHTML, like Gecko) Chrome/92.0.4515.131 Safari/537.36",Macintosh,Chrome,92.0.4515.131,"OS X",10_15_7,5f461dd6c139dd6b46c7596cbd57cd79
200,1,"""","""","""","""","""",sampler,90,230966,0.0-6.0-84.0,"""","""","""","""","""","""","""","""","""","""","""","""","2021-08-13 21:13:22",141.134.106.114,"Mozilla/5.0 (Macintosh; Intel Mac OS X 10_15_7) AppleWebKit/537.36 (KHTML, like Gecko) Chrome/92.0.4515.131 Safari/537.36",Macintosh,Chrome,92.0.4515.131,"OS X",10_15_7,5f461dd6c139dd6b46c7596cbd57cd79
200,1,"""","""","""","""","""",sampler,91,230966,0.0-6.0-85.0,"""","""","""","""","""","""","""","""","""","""","""","""","2021-08-13 21:13:22",141.134.106.114,"Mozilla/5.0 (Macintosh; Intel Mac OS X 10_15_7) AppleWebKit/537.36 (KHTML, like Gecko) Chrome/92.0.4515.131 Safari/537.36",Macintosh,Chrome,92.0.4515.131,"OS X",10_15_7,5f461dd6c139dd6b46c7596cbd57cd79
200,1,"""","""","""","""","""",sampler,92,230967,0.0-6.0-86.0,"""","""","""","""","""","""","""","""","""","""","""","""","2021-08-13 21:13:22",141.134.106.114,"Mozilla/5.0 (Macintosh; Intel Mac OS X 10_15_7) AppleWebKit/537.36 (KHTML, like Gecko) Chrome/92.0.4515.131 Safari/537.36",Macintosh,Chrome,92.0.4515.131,"OS X",10_15_7,5f461dd6c139dd6b46c7596cbd57cd79
200,1,"""","""","""","""","""",sampler,93,230967,0.0-6.0-87.0,"""","""","""","""","""","""","""","""","""","""","""","""","2021-08-13 21:13:22",141.134.106.114,"Mozilla/5.0 (Macintosh; Intel Mac OS X 10_15_7) AppleWebKit/537.36 (KHTML, like Gecko) Chrome/92.0.4515.131 Safari/537.36",Macintosh,Chrome,92.0.4515.131,"OS X",10_15_7,5f461dd6c139dd6b46c7596cbd57cd79
200,1,"""","""","""","""","""",sampler,94,230967,0.0-6.0-88.0,"""","""","""","""","""","""","""","""","""","""","""","""","2021-08-13 21:13:22",141.134.106.114,"Mozilla/5.0 (Macintosh; Intel Mac OS X 10_15_7) AppleWebKit/537.36 (KHTML, like Gecko) Chrome/92.0.4515.131 Safari/537.36",Macintosh,Chrome,92.0.4515.131,"OS X",10_15_7,5f461dd6c139dd6b46c7596cbd57cd79
200,1,"""","""","""","""","""",sampler,95,230967,0.0-6.0-89.0,"""","""","""","""","""","""","""","""","""","""","""","""","2021-08-13 21:13:22",141.134.106.114,"Mozilla/5.0 (Macintosh; Intel Mac OS X 10_15_7) AppleWebKit/537.36 (KHTML, like Gecko) Chrome/92.0.4515.131 Safari/537.36",Macintosh,Chrome,92.0.4515.131,"OS X",10_15_7,5f461dd6c139dd6b46c7596cbd57cd79
200,1,"""","""","""","""","""",sampler,96,230967,0.0-6.0-90.0,"""","""","""","""","""","""","""","""","""","""","""","""","2021-08-13 21:13:22",141.134.106.114,"Mozilla/5.0 (Macintosh; Intel Mac OS X 10_15_7) AppleWebKit/537.36 (KHTML, like Gecko) Chrome/92.0.4515.131 Safari/537.36",Macintosh,Chrome,92.0.4515.131,"OS X",10_15_7,5f461dd6c139dd6b46c7596cbd57cd79
200,1,"""","""","""","""","""",sampler,97,230967,0.0-6.0-91.0,"""","""","""","""","""","""","""","""","""","""","""","""","2021-08-13 21:13:22",141.134.106.114,"Mozilla/5.0 (Macintosh; Intel Mac OS X 10_15_7) AppleWebKit/537.36 (KHTML, like Gecko) Chrome/92.0.4515.131 Safari/537.36",Macintosh,Chrome,92.0.4515.131,"OS X",10_15_7,5f461dd6c139dd6b46c7596cbd57cd79
200,1,"""","""","""","""","""",sampler,98,230967,0.0-6.0-92.0,"""","""","""","""","""","""","""","""","""","""","""","""","2021-08-13 21:13:22",141.134.106.114,"Mozilla/5.0 (Macintosh; Intel Mac OS X 10_15_7) AppleWebKit/537.36 (KHTML, like Gecko) Chrome/92.0.4515.131 Safari/537.36",Macintosh,Chrome,92.0.4515.131,"OS X",10_15_7,5f461dd6c139dd6b46c7596cbd57cd79
200,1,"""","""","""","""","""",sampler,99,230967,0.0-6.0-93.0,"""","""","""","""","""","""","""","""","""","""","""","""","2021-08-13 21:13:22",141.134.106.114,"Mozilla/5.0 (Macintosh; Intel Mac OS X 10_15_7) AppleWebKit/537.36 (KHTML, like Gecko) Chrome/92.0.4515.131 Safari/537.36",Macintosh,Chrome,92.0.4515.131,"OS X",10_15_7,5f461dd6c139dd6b46c7596cbd57cd79
200,1,"""","""","""","""","""",sampler,100,230968,0.0-6.0-94.0,"""","""","""","""","""","""","""","""","""","""","""","""","2021-08-13 21:13:22",141.134.106.114,"Mozilla/5.0 (Macintosh; Intel Mac OS X 10_15_7) AppleWebKit/537.36 (KHTML, like Gecko) Chrome/92.0.4515.131 Safari/537.36",Macintosh,Chrome,92.0.4515.131,"OS X",10_15_7,5f461dd6c139dd6b46c7596cbd57cd79
200,1,"""","""","""","""","""",sampler,101,230968,0.0-6.0-95.0,"""","""","""","""","""","""","""","""","""","""","""","""","2021-08-13 21:13:22",141.134.106.114,"Mozilla/5.0 (Macintosh; Intel Mac OS X 10_15_7) AppleWebKit/537.36 (KHTML, like Gecko) Chrome/92.0.4515.131 Safari/537.36",Macintosh,Chrome,92.0.4515.131,"OS X",10_15_7,5f461dd6c139dd6b46c7596cbd57cd79
200,1,"""","""","""","""","""",sampler,102,230968,0.0-6.0-96.0,"""","""","""","""","""","""","""","""","""","""","""","""","2021-08-13 21:13:22",141.134.106.114,"Mozilla/5.0 (Macintosh; Intel Mac OS X 10_15_7) AppleWebKit/537.36 (KHTML, like Gecko) Chrome/92.0.4515.131 Safari/537.36",Macintosh,Chrome,92.0.4515.131,"OS X",10_15_7,5f461dd6c139dd6b46c7596cbd57cd79
200,1,"""","""","""","""","""",sampler,103,230968,0.0-6.0-97.0,"""","""","""","""","""","""","""","""","""","""","""","""","2021-08-13 21:13:22",141.134.106.114,"Mozilla/5.0 (Macintosh; Intel Mac OS X 10_15_7) AppleWebKit/537.36 (KHTML, like Gecko) Chrome/92.0.4515.131 Safari/537.36",Macintosh,Chrome,92.0.4515.131,"OS X",10_15_7,5f461dd6c139dd6b46c7596cbd57cd79
200,1,"""","""","""","""","""",sampler,104,230968,0.0-6.0-98.0,"""","""","""","""","""","""","""","""","""","""","""","""","2021-08-13 21:13:22",141.134.106.114,"Mozilla/5.0 (Macintosh; Intel Mac OS X 10_15_7) AppleWebKit/537.36 (KHTML, like Gecko) Chrome/92.0.4515.131 Safari/537.36",Macintosh,Chrome,92.0.4515.131,"OS X",10_15_7,5f461dd6c139dd6b46c7596cbd57cd79
200,1,"""","""","""","""","""",sampler,105,230968,0.0-6.0-99.0,"""","""","""","""","""","""","""","""","""","""","""","""","2021-08-13 21:13:22",141.134.106.114,"Mozilla/5.0 (Macintosh; Intel Mac OS X 10_15_7) AppleWebKit/537.36 (KHTML, like Gecko) Chrome/92.0.4515.131 Safari/537.36",Macintosh,Chrome,92.0.4515.131,"OS X",10_15_7,5f461dd6c139dd6b46c7596cbd57cd79
200,1,"""","""","""","""","""",sampler,106,230968,0.0-6.0-100.0,"""","""","""","""","""","""","""","""","""","""","""","""","2021-08-13 21:13:22",141.134.106.114,"Mozilla/5.0 (Macintosh; Intel Mac OS X 10_15_7) AppleWebKit/537.36 (KHTML, like Gecko) Chrome/92.0.4515.131 Safari/537.36",Macintosh,Chrome,92.0.4515.131,"OS X",10_15_7,5f461dd6c139dd6b46c7596cbd57cd79
200,1,"""","""","""","""","""",sampler,107,230968,0.0-6.0-101.0,"""","""","""","""","""","""","""","""","""","""","""","""","2021-08-13 21:13:22",141.134.106.114,"Mozilla/5.0 (Macintosh; Intel Mac OS X 10_15_7) AppleWebKit/537.36 (KHTML, like Gecko) Chrome/92.0.4515.131 Safari/537.36",Macintosh,Chrome,92.0.4515.131,"OS X",10_15_7,5f461dd6c139dd6b46c7596cbd57cd79
200,1,"""","""","""","""","""",sampler,108,230969,0.0-6.0-102.0,"""","""","""","""","""","""","""","""","""","""","""","""","2021-08-13 21:13:22",141.134.106.114,"Mozilla/5.0 (Macintosh; Intel Mac OS X 10_15_7) AppleWebKit/537.36 (KHTML, like Gecko) Chrome/92.0.4515.131 Safari/537.36",Macintosh,Chrome,92.0.4515.131,"OS X",10_15_7,5f461dd6c139dd6b46c7596cbd57cd79
200,1,"""","""","""","""","""",sampler,109,230969,0.0-6.0-103.0,"""","""","""","""","""","""","""","""","""","""","""","""","2021-08-13 21:13:22",141.134.106.114,"Mozilla/5.0 (Macintosh; Intel Mac OS X 10_15_7) AppleWebKit/537.36 (KHTML, like Gecko) Chrome/92.0.4515.131 Safari/537.36",Macintosh,Chrome,92.0.4515.131,"OS X",10_15_7,5f461dd6c139dd6b46c7596cbd57cd79
200,1,"""","""","""","""","""",sampler,110,230969,0.0-6.0-104.0,"""","""","""","""","""","""","""","""","""","""","""","""","2021-08-13 21:13:22",141.134.106.114,"Mozilla/5.0 (Macintosh; Intel Mac OS X 10_15_7) AppleWebKit/537.36 (KHTML, like Gecko) Chrome/92.0.4515.131 Safari/537.36",Macintosh,Chrome,92.0.4515.131,"OS X",10_15_7,5f461dd6c139dd6b46c7596cbd57cd79
200,1,"""","""","""","""","""",sampler,111,230969,0.0-6.0-105.0,"""","""","""","""","""","""","""","""","""","""","""","""","2021-08-13 21:13:22",141.134.106.114,"Mozilla/5.0 (Macintosh; Intel Mac OS X 10_15_7) AppleWebKit/537.36 (KHTML, like Gecko) Chrome/92.0.4515.131 Safari/537.36",Macintosh,Chrome,92.0.4515.131,"OS X",10_15_7,5f461dd6c139dd6b46c7596cbd57cd79
200,1,"""","""","""","""","""",sampler,112,230969,0.0-6.0-106.0,"""","""","""","""","""","""","""","""","""","""","""","""","2021-08-13 21:13:22",141.134.106.114,"Mozilla/5.0 (Macintosh; Intel Mac OS X 10_15_7) AppleWebKit/537.36 (KHTML, like Gecko) Chrome/92.0.4515.131 Safari/537.36",Macintosh,Chrome,92.0.4515.131,"OS X",10_15_7,5f461dd6c139dd6b46c7596cbd57cd79
200,1,"""","""","""","""","""",sampler,113,230969,0.0-6.0-107.0,"""","""","""","""","""","""","""","""","""","""","""","""","2021-08-13 21:13:22",141.134.106.114,"Mozilla/5.0 (Macintosh; Intel Mac OS X 10_15_7) AppleWebKit/537.36 (KHTML, like Gecko) Chrome/92.0.4515.131 Safari/537.36",Macintosh,Chrome,92.0.4515.131,"OS X",10_15_7,5f461dd6c139dd6b46c7596cbd57cd79
200,1,"""","""","""","""","""",sampler,114,230969,0.0-6.0-108.0,"""","""","""","""","""","""","""","""","""","""","""","""","2021-08-13 21:13:22",141.134.106.114,"Mozilla/5.0 (Macintosh; Intel Mac OS X 10_15_7) AppleWebKit/537.36 (KHTML, like Gecko) Chrome/92.0.4515.131 Safari/537.36",Macintosh,Chrome,92.0.4515.131,"OS X",10_15_7,5f461dd6c139dd6b46c7596cbd57cd79
200,1,"""","""","""","""","""",sampler,115,230969,0.0-6.0-109.0,"""","""","""","""","""","""","""","""","""","""","""","""","2021-08-13 21:13:22",141.134.106.114,"Mozilla/5.0 (Macintosh; Intel Mac OS X 10_15_7) AppleWebKit/537.36 (KHTML, like Gecko) Chrome/92.0.4515.131 Safari/537.36",Macintosh,Chrome,92.0.4515.131,"OS X",10_15_7,5f461dd6c139dd6b46c7596cbd57cd79
200,1,"""","""","""","""","""",sampler,116,230969,0.0-6.0-110.0,"""","""","""","""","""","""","""","""","""","""","""","""","2021-08-13 21:13:22",141.134.106.114,"Mozilla/5.0 (Macintosh; Intel Mac OS X 10_15_7) AppleWebKit/537.36 (KHTML, like Gecko) Chrome/92.0.4515.131 Safari/537.36",Macintosh,Chrome,92.0.4515.131,"OS X",10_15_7,5f461dd6c139dd6b46c7596cbd57cd79
200,1,"""","""","""","""","""",sampler,117,230970,0.0-6.0-111.0,"""","""","""","""","""","""","""","""","""","""","""","""","2021-08-13 21:13:22",141.134.106.114,"Mozilla/5.0 (Macintosh; Intel Mac OS X 10_15_7) AppleWebKit/537.36 (KHTML, like Gecko) Chrome/92.0.4515.131 Safari/537.36",Macintosh,Chrome,92.0.4515.131,"OS X",10_15_7,5f461dd6c139dd6b46c7596cbd57cd79
200,1,"""","""","""","""","""",sampler,118,230970,0.0-6.0-112.0,"""","""","""","""","""","""","""","""","""","""","""","""","2021-08-13 21:13:22",141.134.106.114,"Mozilla/5.0 (Macintosh; Intel Mac OS X 10_15_7) AppleWebKit/537.36 (KHTML, like Gecko) Chrome/92.0.4515.131 Safari/537.36",Macintosh,Chrome,92.0.4515.131,"OS X",10_15_7,5f461dd6c139dd6b46c7596cbd57cd79
200,1,"""","""","""","""","""",sampler,119,230970,0.0-6.0-113.0,"""","""","""","""","""","""","""","""","""","""","""","""","2021-08-13 21:13:22",141.134.106.114,"Mozilla/5.0 (Macintosh; Intel Mac OS X 10_15_7) AppleWebKit/537.36 (KHTML, like Gecko) Chrome/92.0.4515.131 Safari/537.36",Macintosh,Chrome,92.0.4515.131,"OS X",10_15_7,5f461dd6c139dd6b46c7596cbd57cd79
200,1,"""","""","""","""","""",sampler,120,230970,0.0-6.0-114.0,"""","""","""","""","""","""","""","""","""","""","""","""","2021-08-13 21:13:22",141.134.106.114,"Mozilla/5.0 (Macintosh; Intel Mac OS X 10_15_7) AppleWebKit/537.36 (KHTML, like Gecko) Chrome/92.0.4515.131 Safari/537.36",Macintosh,Chrome,92.0.4515.131,"OS X",10_15_7,5f461dd6c139dd6b46c7596cbd57cd79
200,1,"""","""","""","""","""",sampler,121,230970,0.0-6.0-115.0,"""","""","""","""","""","""","""","""","""","""","""","""","2021-08-13 21:13:22",141.134.106.114,"Mozilla/5.0 (Macintosh; Intel Mac OS X 10_15_7) AppleWebKit/537.36 (KHTML, like Gecko) Chrome/92.0.4515.131 Safari/537.36",Macintosh,Chrome,92.0.4515.131,"OS X",10_15_7,5f461dd6c139dd6b46c7596cbd57cd79
200,1,"""","""","""","""","""",sampler,122,230970,0.0-6.0-116.0,"""","""","""","""","""","""","""","""","""","""","""","""","2021-08-13 21:13:22",141.134.106.114,"Mozilla/5.0 (Macintosh; Intel Mac OS X 10_15_7) AppleWebKit/537.36 (KHTML, like Gecko) Chrome/92.0.4515.131 Safari/537.36",Macintosh,Chrome,92.0.4515.131,"OS X",10_15_7,5f461dd6c139dd6b46c7596cbd57cd79
200,1,"""","""","""","""","""",sampler,123,230970,0.0-6.0-117.0,"""","""","""","""","""","""","""","""","""","""","""","""","2021-08-13 21:13:22",141.134.106.114,"Mozilla/5.0 (Macintosh; Intel Mac OS X 10_15_7) AppleWebKit/537.36 (KHTML, like Gecko) Chrome/92.0.4515.131 Safari/537.36",Macintosh,Chrome,92.0.4515.131,"OS X",10_15_7,5f461dd6c139dd6b46c7596cbd57cd79
200,1,"""","""","""","""","""",sampler,124,230971,0.0-6.0-118.0,"""","""","""","""","""","""","""","""","""","""","""","""","2021-08-13 21:13:22",141.134.106.114,"Mozilla/5.0 (Macintosh; Intel Mac OS X 10_15_7) AppleWebKit/537.36 (KHTML, like Gecko) Chrome/92.0.4515.131 Safari/537.36",Macintosh,Chrome,92.0.4515.131,"OS X",10_15_7,5f461dd6c139dd6b46c7596cbd57cd79
200,1,"""","""","""","""","""",sampler,125,230971,0.0-6.0-119.0,"""","""","""","""","""","""","""","""","""","""","""","""","2021-08-13 21:13:22",141.134.106.114,"Mozilla/5.0 (Macintosh; Intel Mac OS X 10_15_7) AppleWebKit/537.36 (KHTML, like Gecko) Chrome/92.0.4515.131 Safari/537.36",Macintosh,Chrome,92.0.4515.131,"OS X",10_15_7,5f461dd6c139dd6b46c7596cbd57cd79
200,1,"""","""","""","""","""",sampler,126,230971,0.0-6.0-120.0,"""","""","""","""","""","""","""","""","""","""","""","""","2021-08-13 21:13:22",141.134.106.114,"Mozilla/5.0 (Macintosh; Intel Mac OS X 10_15_7) AppleWebKit/537.36 (KHTML, like Gecko) Chrome/92.0.4515.131 Safari/537.36",Macintosh,Chrome,92.0.4515.131,"OS X",10_15_7,5f461dd6c139dd6b46c7596cbd57cd79
200,1,"""","""","""","""","""",sampler,127,230971,0.0-6.0-121.0,"""","""","""","""","""","""","""","""","""","""","""","""","2021-08-13 21:13:22",141.134.106.114,"Mozilla/5.0 (Macintosh; Intel Mac OS X 10_15_7) AppleWebKit/537.36 (KHTML, like Gecko) Chrome/92.0.4515.131 Safari/537.36",Macintosh,Chrome,92.0.4515.131,"OS X",10_15_7,5f461dd6c139dd6b46c7596cbd57cd79
200,1,"""","""","""","""","""",sampler,128,230971,0.0-6.0-122.0,"""","""","""","""","""","""","""","""","""","""","""","""","2021-08-13 21:13:22",141.134.106.114,"Mozilla/5.0 (Macintosh; Intel Mac OS X 10_15_7) AppleWebKit/537.36 (KHTML, like Gecko) Chrome/92.0.4515.131 Safari/537.36",Macintosh,Chrome,92.0.4515.131,"OS X",10_15_7,5f461dd6c139dd6b46c7596cbd57cd79
200,1,"""","""","""","""","""",sampler,129,230971,0.0-6.0-123.0,"""","""","""","""","""","""","""","""","""","""","""","""","2021-08-13 21:13:22",141.134.106.114,"Mozilla/5.0 (Macintosh; Intel Mac OS X 10_15_7) AppleWebKit/537.36 (KHTML, like Gecko) Chrome/92.0.4515.131 Safari/537.36",Macintosh,Chrome,92.0.4515.131,"OS X",10_15_7,5f461dd6c139dd6b46c7596cbd57cd79
200,1,"""","""","""","""","""",sampler,130,230971,0.0-6.0-124.0,"""","""","""","""","""","""","""","""","""","""","""","""","2021-08-13 21:13:22",141.134.106.114,"Mozilla/5.0 (Macintosh; Intel Mac OS X 10_15_7) AppleWebKit/537.36 (KHTML, like Gecko) Chrome/92.0.4515.131 Safari/537.36",Macintosh,Chrome,92.0.4515.131,"OS X",10_15_7,5f461dd6c139dd6b46c7596cbd57cd79
200,1,"""","""","""","""","""",sampler,131,230971,0.0-6.0-125.0,"""","""","""","""","""","""","""","""","""","""","""","""","2021-08-13 21:13:22",141.134.106.114,"Mozilla/5.0 (Macintosh; Intel Mac OS X 10_15_7) AppleWebKit/537.36 (KHTML, like Gecko) Chrome/92.0.4515.131 Safari/537.36",Macintosh,Chrome,92.0.4515.131,"OS X",10_15_7,5f461dd6c139dd6b46c7596cbd57cd79
200,1,"""","""","""","""","""",sampler,132,230971,0.0-6.0-126.0,"""","""","""","""","""","""","""","""","""","""","""","""","2021-08-13 21:13:22",141.134.106.114,"Mozilla/5.0 (Macintosh; Intel Mac OS X 10_15_7) AppleWebKit/537.36 (KHTML, like Gecko) Chrome/92.0.4515.131 Safari/537.36",Macintosh,Chrome,92.0.4515.131,"OS X",10_15_7,5f461dd6c139dd6b46c7596cbd57cd79
200,1,"""","""","""","""","""",sampler,133,230971,0.0-6.0-127.0,"""","""","""","""","""","""","""","""","""","""","""","""","2021-08-13 21:13:22",141.134.106.114,"Mozilla/5.0 (Macintosh; Intel Mac OS X 10_15_7) AppleWebKit/537.36 (KHTML, like Gecko) Chrome/92.0.4515.131 Safari/537.36",Macintosh,Chrome,92.0.4515.131,"OS X",10_15_7,5f461dd6c139dd6b46c7596cbd57cd79
200,1,"""","""","""","""","""",sampler,134,230972,0.0-6.0-128.0,"""","""","""","""","""","""","""","""","""","""","""","""","2021-08-13 21:13:22",141.134.106.114,"Mozilla/5.0 (Macintosh; Intel Mac OS X 10_15_7) AppleWebKit/537.36 (KHTML, like Gecko) Chrome/92.0.4515.131 Safari/537.36",Macintosh,Chrome,92.0.4515.131,"OS X",10_15_7,5f461dd6c139dd6b46c7596cbd57cd79
200,1,"""","""","""","""","""",sampler,135,230972,0.0-6.0-129.0,"""","""","""","""","""","""","""","""","""","""","""","""","2021-08-13 21:13:22",141.134.106.114,"Mozilla/5.0 (Macintosh; Intel Mac OS X 10_15_7) AppleWebKit/537.36 (KHTML, like Gecko) Chrome/92.0.4515.131 Safari/537.36",Macintosh,Chrome,92.0.4515.131,"OS X",10_15_7,5f461dd6c139dd6b46c7596cbd57cd79
200,1,"""","""","""","""","""",sampler,136,230972,0.0-6.0-130.0,"""","""","""","""","""","""","""","""","""","""","""","""","2021-08-13 21:13:22",141.134.106.114,"Mozilla/5.0 (Macintosh; Intel Mac OS X 10_15_7) AppleWebKit/537.36 (KHTML, like Gecko) Chrome/92.0.4515.131 Safari/537.36",Macintosh,Chrome,92.0.4515.131,"OS X",10_15_7,5f461dd6c139dd6b46c7596cbd57cd79
200,1,"""","""","""","""","""",sampler,137,230972,0.0-6.0-131.0,"""","""","""","""","""","""","""","""","""","""","""","""","2021-08-13 21:13:22",141.134.106.114,"Mozilla/5.0 (Macintosh; Intel Mac OS X 10_15_7) AppleWebKit/537.36 (KHTML, like Gecko) Chrome/92.0.4515.131 Safari/537.36",Macintosh,Chrome,92.0.4515.131,"OS X",10_15_7,5f461dd6c139dd6b46c7596cbd57cd79
200,1,"""","""","""","""","""",sampler,138,230972,0.0-6.0-132.0,"""","""","""","""","""","""","""","""","""","""","""","""","2021-08-13 21:13:22",141.134.106.114,"Mozilla/5.0 (Macintosh; Intel Mac OS X 10_15_7) AppleWebKit/537.36 (KHTML, like Gecko) Chrome/92.0.4515.131 Safari/537.36",Macintosh,Chrome,92.0.4515.131,"OS X",10_15_7,5f461dd6c139dd6b46c7596cbd57cd79
200,1,"""","""","""","""","""",sampler,139,230973,0.0-6.0-133.0,"""","""","""","""","""","""","""","""","""","""","""","""","2021-08-13 21:13:22",141.134.106.114,"Mozilla/5.0 (Macintosh; Intel Mac OS X 10_15_7) AppleWebKit/537.36 (KHTML, like Gecko) Chrome/92.0.4515.131 Safari/537.36",Macintosh,Chrome,92.0.4515.131,"OS X",10_15_7,5f461dd6c139dd6b46c7596cbd57cd79
200,1,"""","""","""","""","""",sampler,140,230973,0.0-6.0-134.0,"""","""","""","""","""","""","""","""","""","""","""","""","2021-08-13 21:13:22",141.134.106.114,"Mozilla/5.0 (Macintosh; Intel Mac OS X 10_15_7) AppleWebKit/537.36 (KHTML, like Gecko) Chrome/92.0.4515.131 Safari/537.36",Macintosh,Chrome,92.0.4515.131,"OS X",10_15_7,5f461dd6c139dd6b46c7596cbd57cd79
200,1,"""","""","""","""","""",sampler,141,230973,0.0-6.0-135.0,"""","""","""","""","""","""","""","""","""","""","""","""","2021-08-13 21:13:22",141.134.106.114,"Mozilla/5.0 (Macintosh; Intel Mac OS X 10_15_7) AppleWebKit/537.36 (KHTML, like Gecko) Chrome/92.0.4515.131 Safari/537.36",Macintosh,Chrome,92.0.4515.131,"OS X",10_15_7,5f461dd6c139dd6b46c7596cbd57cd79
200,1,"""","""","""","""","""",sampler,142,230973,0.0-6.0-136.0,"""","""","""","""","""","""","""","""","""","""","""","""","2021-08-13 21:13:22",141.134.106.114,"Mozilla/5.0 (Macintosh; Intel Mac OS X 10_15_7) AppleWebKit/537.36 (KHTML, like Gecko) Chrome/92.0.4515.131 Safari/537.36",Macintosh,Chrome,92.0.4515.131,"OS X",10_15_7,5f461dd6c139dd6b46c7596cbd57cd79
200,1,"""","""","""","""","""",sampler,143,230973,0.0-6.0-137.0,"""","""","""","""","""","""","""","""","""","""","""","""","2021-08-13 21:13:22",141.134.106.114,"Mozilla/5.0 (Macintosh; Intel Mac OS X 10_15_7) AppleWebKit/537.36 (KHTML, like Gecko) Chrome/92.0.4515.131 Safari/537.36",Macintosh,Chrome,92.0.4515.131,"OS X",10_15_7,5f461dd6c139dd6b46c7596cbd57cd79
200,1,"""","""","""","""","""",sampler,144,230973,0.0-6.0-138.0,"""","""","""","""","""","""","""","""","""","""","""","""","2021-08-13 21:13:22",141.134.106.114,"Mozilla/5.0 (Macintosh; Intel Mac OS X 10_15_7) AppleWebKit/537.36 (KHTML, like Gecko) Chrome/92.0.4515.131 Safari/537.36",Macintosh,Chrome,92.0.4515.131,"OS X",10_15_7,5f461dd6c139dd6b46c7596cbd57cd79
200,1,"""","""","""","""","""",sampler,145,230973,0.0-6.0-139.0,"""","""","""","""","""","""","""","""","""","""","""","""","2021-08-13 21:13:22",141.134.106.114,"Mozilla/5.0 (Macintosh; Intel Mac OS X 10_15_7) AppleWebKit/537.36 (KHTML, like Gecko) Chrome/92.0.4515.131 Safari/537.36",Macintosh,Chrome,92.0.4515.131,"OS X",10_15_7,5f461dd6c139dd6b46c7596cbd57cd79
200,1,"""","""","""","""","""",sampler,146,230974,0.0-6.0-140.0,"""","""","""","""","""","""","""","""","""","""","""","""","2021-08-13 21:13:22",141.134.106.114,"Mozilla/5.0 (Macintosh; Intel Mac OS X 10_15_7) AppleWebKit/537.36 (KHTML, like Gecko) Chrome/92.0.4515.131 Safari/537.36",Macintosh,Chrome,92.0.4515.131,"OS X",10_15_7,5f461dd6c139dd6b46c7596cbd57cd79
200,1,"""","""","""","""","""",sampler,147,230974,0.0-6.0-141.0,"""","""","""","""","""","""","""","""","""","""","""","""","2021-08-13 21:13:22",141.134.106.114,"Mozilla/5.0 (Macintosh; Intel Mac OS X 10_15_7) AppleWebKit/537.36 (KHTML, like Gecko) Chrome/92.0.4515.131 Safari/537.36",Macintosh,Chrome,92.0.4515.131,"OS X",10_15_7,5f461dd6c139dd6b46c7596cbd57cd79
200,1,"""","""","""","""","""",sampler,148,230974,0.0-6.0-142.0,"""","""","""","""","""","""","""","""","""","""","""","""","2021-08-13 21:13:22",141.134.106.114,"Mozilla/5.0 (Macintosh; Intel Mac OS X 10_15_7) AppleWebKit/537.36 (KHTML, like Gecko) Chrome/92.0.4515.131 Safari/537.36",Macintosh,Chrome,92.0.4515.131,"OS X",10_15_7,5f461dd6c139dd6b46c7596cbd57cd79
200,1,"""","""","""","""","""",sampler,149,230974,0.0-6.0-143.0,"""","""","""","""","""","""","""","""","""","""","""","""","2021-08-13 21:13:22",141.134.106.114,"Mozilla/5.0 (Macintosh; Intel Mac OS X 10_15_7) AppleWebKit/537.36 (KHTML, like Gecko) Chrome/92.0.4515.131 Safari/537.36",Macintosh,Chrome,92.0.4515.131,"OS X",10_15_7,5f461dd6c139dd6b46c7596cbd57cd79
200,1,"""","""","""","""","""",sampler,150,230974,0.0-6.0-144.0,"""","""","""","""","""","""","""","""","""","""","""","""","2021-08-13 21:13:22",141.134.106.114,"Mozilla/5.0 (Macintosh; Intel Mac OS X 10_15_7) AppleWebKit/537.36 (KHTML, like Gecko) Chrome/92.0.4515.131 Safari/537.36",Macintosh,Chrome,92.0.4515.131,"OS X",10_15_7,5f461dd6c139dd6b46c7596cbd57cd79
200,1,"""","""","""","""","""",sampler,151,230974,0.0-6.0-145.0,"""","""","""","""","""","""","""","""","""","""","""","""","2021-08-13 21:13:22",141.134.106.114,"Mozilla/5.0 (Macintosh; Intel Mac OS X 10_15_7) AppleWebKit/537.36 (KHTML, like Gecko) Chrome/92.0.4515.131 Safari/537.36",Macintosh,Chrome,92.0.4515.131,"OS X",10_15_7,5f461dd6c139dd6b46c7596cbd57cd79
200,1,"""","""","""","""","""",sampler,152,230974,0.0-6.0-146.0,"""","""","""","""","""","""","""","""","""","""","""","""","2021-08-13 21:13:22",141.134.106.114,"Mozilla/5.0 (Macintosh; Intel Mac OS X 10_15_7) AppleWebKit/537.36 (KHTML, like Gecko) Chrome/92.0.4515.131 Safari/537.36",Macintosh,Chrome,92.0.4515.131,"OS X",10_15_7,5f461dd6c139dd6b46c7596cbd57cd79
200,1,"""","""","""","""","""",sampler,153,230974,0.0-6.0-147.0,"""","""","""","""","""","""","""","""","""","""","""","""","2021-08-13 21:13:22",141.134.106.114,"Mozilla/5.0 (Macintosh; Intel Mac OS X 10_15_7) AppleWebKit/537.36 (KHTML, like Gecko) Chrome/92.0.4515.131 Safari/537.36",Macintosh,Chrome,92.0.4515.131,"OS X",10_15_7,5f461dd6c139dd6b46c7596cbd57cd79
200,1,"""","""","""","""","""",sampler,154,230974,0.0-6.0-148.0,"""","""","""","""","""","""","""","""","""","""","""","""","2021-08-13 21:13:22",141.134.106.114,"Mozilla/5.0 (Macintosh; Intel Mac OS X 10_15_7) AppleWebKit/537.36 (KHTML, like Gecko) Chrome/92.0.4515.131 Safari/537.36",Macintosh,Chrome,92.0.4515.131,"OS X",10_15_7,5f461dd6c139dd6b46c7596cbd57cd79
200,1,"""","""","""","""","""",sampler,155,230974,0.0-6.0-149.0,"""","""","""","""","""","""","""","""","""","""","""","""","2021-08-13 21:13:22",141.134.106.114,"Mozilla/5.0 (Macintosh; Intel Mac OS X 10_15_7) AppleWebKit/537.36 (KHTML, like Gecko) Chrome/92.0.4515.131 Safari/537.36",Macintosh,Chrome,92.0.4515.131,"OS X",10_15_7,5f461dd6c139dd6b46c7596cbd57cd79
200,1,"""","""","""","""","""",sampler,156,230974,0.0-6.0-150.0,"""","""","""","""","""","""","""","""","""","""","""","""","2021-08-13 21:13:22",141.134.106.114,"Mozilla/5.0 (Macintosh; Intel Mac OS X 10_15_7) AppleWebKit/537.36 (KHTML, like Gecko) Chrome/92.0.4515.131 Safari/537.36",Macintosh,Chrome,92.0.4515.131,"OS X",10_15_7,5f461dd6c139dd6b46c7596cbd57cd79
200,1,"""","""","""","""","""",sampler,157,230974,0.0-6.0-151.0,"""","""","""","""","""","""","""","""","""","""","""","""","2021-08-13 21:13:22",141.134.106.114,"Mozilla/5.0 (Macintosh; Intel Mac OS X 10_15_7) AppleWebKit/537.36 (KHTML, like Gecko) Chrome/92.0.4515.131 Safari/537.36",Macintosh,Chrome,92.0.4515.131,"OS X",10_15_7,5f461dd6c139dd6b46c7596cbd57cd79
200,1,"""","""","""","""","""",sampler,158,230975,0.0-6.0-152.0,"""","""","""","""","""","""","""","""","""","""","""","""","2021-08-13 21:13:22",141.134.106.114,"Mozilla/5.0 (Macintosh; Intel Mac OS X 10_15_7) AppleWebKit/537.36 (KHTML, like Gecko) Chrome/92.0.4515.131 Safari/537.36",Macintosh,Chrome,92.0.4515.131,"OS X",10_15_7,5f461dd6c139dd6b46c7596cbd57cd79
200,1,"""","""","""","""","""",sampler,159,230975,0.0-6.0-153.0,"""","""","""","""","""","""","""","""","""","""","""","""","2021-08-13 21:13:22",141.134.106.114,"Mozilla/5.0 (Macintosh; Intel Mac OS X 10_15_7) AppleWebKit/537.36 (KHTML, like Gecko) Chrome/92.0.4515.131 Safari/537.36",Macintosh,Chrome,92.0.4515.131,"OS X",10_15_7,5f461dd6c139dd6b46c7596cbd57cd79
200,1,"""","""","""","""","""",sampler,160,230975,0.0-6.0-154.0,"""","""","""","""","""","""","""","""","""","""","""","""","2021-08-13 21:13:22",141.134.106.114,"Mozilla/5.0 (Macintosh; Intel Mac OS X 10_15_7) AppleWebKit/537.36 (KHTML, like Gecko) Chrome/92.0.4515.131 Safari/537.36",Macintosh,Chrome,92.0.4515.131,"OS X",10_15_7,5f461dd6c139dd6b46c7596cbd57cd79
200,1,"""","""","""","""","""",sampler,161,230975,0.0-6.0-155.0,"""","""","""","""","""","""","""","""","""","""","""","""","2021-08-13 21:13:22",141.134.106.114,"Mozilla/5.0 (Macintosh; Intel Mac OS X 10_15_7) AppleWebKit/537.36 (KHTML, like Gecko) Chrome/92.0.4515.131 Safari/537.36",Macintosh,Chrome,92.0.4515.131,"OS X",10_15_7,5f461dd6c139dd6b46c7596cbd57cd79
200,1,"""","""","""","""","""",sampler,162,230975,0.0-6.0-156.0,"""","""","""","""","""","""","""","""","""","""","""","""","2021-08-13 21:13:22",141.134.106.114,"Mozilla/5.0 (Macintosh; Intel Mac OS X 10_15_7) AppleWebKit/537.36 (KHTML, like Gecko) Chrome/92.0.4515.131 Safari/537.36",Macintosh,Chrome,92.0.4515.131,"OS X",10_15_7,5f461dd6c139dd6b46c7596cbd57cd79
200,1,"""","""","""","""","""",sampler,163,230975,0.0-6.0-157.0,"""","""","""","""","""","""","""","""","""","""","""","""","2021-08-13 21:13:22",141.134.106.114,"Mozilla/5.0 (Macintosh; Intel Mac OS X 10_15_7) AppleWebKit/537.36 (KHTML, like Gecko) Chrome/92.0.4515.131 Safari/537.36",Macintosh,Chrome,92.0.4515.131,"OS X",10_15_7,5f461dd6c139dd6b46c7596cbd57cd79
200,1,"""","""","""","""","""",sampler,164,230975,0.0-6.0-158.0,"""","""","""","""","""","""","""","""","""","""","""","""","2021-08-13 21:13:22",141.134.106.114,"Mozilla/5.0 (Macintosh; Intel Mac OS X 10_15_7) AppleWebKit/537.36 (KHTML, like Gecko) Chrome/92.0.4515.131 Safari/537.36",Macintosh,Chrome,92.0.4515.131,"OS X",10_15_7,5f461dd6c139dd6b46c7596cbd57cd79
200,1,"""","""","""","""","""",sampler,165,230975,0.0-6.0-159.0,"""","""","""","""","""","""","""","""","""","""","""","""","2021-08-13 21:13:22",141.134.106.114,"Mozilla/5.0 (Macintosh; Intel Mac OS X 10_15_7) AppleWebKit/537.36 (KHTML, like Gecko) Chrome/92.0.4515.131 Safari/537.36",Macintosh,Chrome,92.0.4515.131,"OS X",10_15_7,5f461dd6c139dd6b46c7596cbd57cd79
200,1,"""","""","""","""","""",sampler,166,230975,0.0-6.0-160.0,"""","""","""","""","""","""","""","""","""","""","""","""","2021-08-13 21:13:22",141.134.106.114,"Mozilla/5.0 (Macintosh; Intel Mac OS X 10_15_7) AppleWebKit/537.36 (KHTML, like Gecko) Chrome/92.0.4515.131 Safari/537.36",Macintosh,Chrome,92.0.4515.131,"OS X",10_15_7,5f461dd6c139dd6b46c7596cbd57cd79
200,1,"""","""","""","""","""",sampler,167,230975,0.0-6.0-161.0,"""","""","""","""","""","""","""","""","""","""","""","""","2021-08-13 21:13:22",141.134.106.114,"Mozilla/5.0 (Macintosh; Intel Mac OS X 10_15_7) AppleWebKit/537.36 (KHTML, like Gecko) Chrome/92.0.4515.131 Safari/537.36",Macintosh,Chrome,92.0.4515.131,"OS X",10_15_7,5f461dd6c139dd6b46c7596cbd57cd79
200,1,"""","""","""","""","""",sampler,168,230975,0.0-6.0-162.0,"""","""","""","""","""","""","""","""","""","""","""","""","2021-08-13 21:13:22",141.134.106.114,"Mozilla/5.0 (Macintosh; Intel Mac OS X 10_15_7) AppleWebKit/537.36 (KHTML, like Gecko) Chrome/92.0.4515.131 Safari/537.36",Macintosh,Chrome,92.0.4515.131,"OS X",10_15_7,5f461dd6c139dd6b46c7596cbd57cd79
200,1,"""","""","""","""","""",sampler,169,230975,0.0-6.0-163.0,"""","""","""","""","""","""","""","""","""","""","""","""","2021-08-13 21:13:22",141.134.106.114,"Mozilla/5.0 (Macintosh; Intel Mac OS X 10_15_7) AppleWebKit/537.36 (KHTML, like Gecko) Chrome/92.0.4515.131 Safari/537.36",Macintosh,Chrome,92.0.4515.131,"OS X",10_15_7,5f461dd6c139dd6b46c7596cbd57cd79
200,1,"""","""","""","""","""",sampler,170,230976,0.0-6.0-164.0,"""","""","""","""","""","""","""","""","""","""","""","""","2021-08-13 21:13:22",141.134.106.114,"Mozilla/5.0 (Macintosh; Intel Mac OS X 10_15_7) AppleWebKit/537.36 (KHTML, like Gecko) Chrome/92.0.4515.131 Safari/537.36",Macintosh,Chrome,92.0.4515.131,"OS X",10_15_7,5f461dd6c139dd6b46c7596cbd57cd79
200,1,"""","""","""","""","""",sampler,171,230976,0.0-6.0-165.0,"""","""","""","""","""","""","""","""","""","""","""","""","2021-08-13 21:13:22",141.134.106.114,"Mozilla/5.0 (Macintosh; Intel Mac OS X 10_15_7) AppleWebKit/537.36 (KHTML, like Gecko) Chrome/92.0.4515.131 Safari/537.36",Macintosh,Chrome,92.0.4515.131,"OS X",10_15_7,5f461dd6c139dd6b46c7596cbd57cd79
200,1,"""","""","""","""","""",sampler,172,230976,0.0-6.0-166.0,"""","""","""","""","""","""","""","""","""","""","""","""","2021-08-13 21:13:22",141.134.106.114,"Mozilla/5.0 (Macintosh; Intel Mac OS X 10_15_7) AppleWebKit/537.36 (KHTML, like Gecko) Chrome/92.0.4515.131 Safari/537.36",Macintosh,Chrome,92.0.4515.131,"OS X",10_15_7,5f461dd6c139dd6b46c7596cbd57cd79
200,1,"""","""","""","""","""",sampler,173,230976,0.0-6.0-167.0,"""","""","""","""","""","""","""","""","""","""","""","""","2021-08-13 21:13:22",141.134.106.114,"Mozilla/5.0 (Macintosh; Intel Mac OS X 10_15_7) AppleWebKit/537.36 (KHTML, like Gecko) Chrome/92.0.4515.131 Safari/537.36",Macintosh,Chrome,92.0.4515.131,"OS X",10_15_7,5f461dd6c139dd6b46c7596cbd57cd79
200,1,"""","""","""","""","""",sampler,174,230976,0.0-6.0-168.0,"""","""","""","""","""","""","""","""","""","""","""","""","2021-08-13 21:13:22",141.134.106.114,"Mozilla/5.0 (Macintosh; Intel Mac OS X 10_15_7) AppleWebKit/537.36 (KHTML, like Gecko) Chrome/92.0.4515.131 Safari/537.36",Macintosh,Chrome,92.0.4515.131,"OS X",10_15_7,5f461dd6c139dd6b46c7596cbd57cd79
200,1,"""","""","""","""","""",sampler,175,230976,0.0-6.0-169.0,"""","""","""","""","""","""","""","""","""","""","""","""","2021-08-13 21:13:22",141.134.106.114,"Mozilla/5.0 (Macintosh; Intel Mac OS X 10_15_7) AppleWebKit/537.36 (KHTML, like Gecko) Chrome/92.0.4515.131 Safari/537.36",Macintosh,Chrome,92.0.4515.131,"OS X",10_15_7,5f461dd6c139dd6b46c7596cbd57cd79
200,1,"""","""","""","""","""",sampler,176,230976,0.0-6.0-170.0,"""","""","""","""","""","""","""","""","""","""","""","""","2021-08-13 21:13:22",141.134.106.114,"Mozilla/5.0 (Macintosh; Intel Mac OS X 10_15_7) AppleWebKit/537.36 (KHTML, like Gecko) Chrome/92.0.4515.131 Safari/537.36",Macintosh,Chrome,92.0.4515.131,"OS X",10_15_7,5f461dd6c139dd6b46c7596cbd57cd79
200,1,"""","""","""","""","""",sampler,177,230976,0.0-6.0-171.0,"""","""","""","""","""","""","""","""","""","""","""","""","2021-08-13 21:13:22",141.134.106.114,"Mozilla/5.0 (Macintosh; Intel Mac OS X 10_15_7) AppleWebKit/537.36 (KHTML, like Gecko) Chrome/92.0.4515.131 Safari/537.36",Macintosh,Chrome,92.0.4515.131,"OS X",10_15_7,5f461dd6c139dd6b46c7596cbd57cd79
200,1,"""","""","""","""","""",sampler,178,230976,0.0-6.0-172.0,"""","""","""","""","""","""","""","""","""","""","""","""","2021-08-13 21:13:22",141.134.106.114,"Mozilla/5.0 (Macintosh; Intel Mac OS X 10_15_7) AppleWebKit/537.36 (KHTML, like Gecko) Chrome/92.0.4515.131 Safari/537.36",Macintosh,Chrome,92.0.4515.131,"OS X",10_15_7,5f461dd6c139dd6b46c7596cbd57cd79
200,1,"""","""","""","""","""",sampler,179,230976,0.0-6.0-173.0,"""","""","""","""","""","""","""","""","""","""","""","""","2021-08-13 21:13:22",141.134.106.114,"Mozilla/5.0 (Macintosh; Intel Mac OS X 10_15_7) AppleWebKit/537.36 (KHTML, like Gecko) Chrome/92.0.4515.131 Safari/537.36",Macintosh,Chrome,92.0.4515.131,"OS X",10_15_7,5f461dd6c139dd6b46c7596cbd57cd79
200,1,"""","""","""","""","""",sampler,180,230976,0.0-6.0-174.0,"""","""","""","""","""","""","""","""","""","""","""","""","2021-08-13 21:13:22",141.134.106.114,"Mozilla/5.0 (Macintosh; Intel Mac OS X 10_15_7) AppleWebKit/537.36 (KHTML, like Gecko) Chrome/92.0.4515.131 Safari/537.36",Macintosh,Chrome,92.0.4515.131,"OS X",10_15_7,5f461dd6c139dd6b46c7596cbd57cd79
200,1,"""","""","""","""","""",sampler,181,230976,0.0-6.0-175.0,"""","""","""","""","""","""","""","""","""","""","""","""","2021-08-13 21:13:22",141.134.106.114,"Mozilla/5.0 (Macintosh; Intel Mac OS X 10_15_7) AppleWebKit/537.36 (KHTML, like Gecko) Chrome/92.0.4515.131 Safari/537.36",Macintosh,Chrome,92.0.4515.131,"OS X",10_15_7,5f461dd6c139dd6b46c7596cbd57cd79
200,1,"""","""","""","""","""",sampler,182,230977,0.0-6.0-176.0,"""","""","""","""","""","""","""","""","""","""","""","""","2021-08-13 21:13:22",141.134.106.114,"Mozilla/5.0 (Macintosh; Intel Mac OS X 10_15_7) AppleWebKit/537.36 (KHTML, like Gecko) Chrome/92.0.4515.131 Safari/537.36",Macintosh,Chrome,92.0.4515.131,"OS X",10_15_7,5f461dd6c139dd6b46c7596cbd57cd79
200,1,"""","""","""","""","""",sampler,183,230977,0.0-6.0-177.0,"""","""","""","""","""","""","""","""","""","""","""","""","2021-08-13 21:13:22",141.134.106.114,"Mozilla/5.0 (Macintosh; Intel Mac OS X 10_15_7) AppleWebKit/537.36 (KHTML, like Gecko) Chrome/92.0.4515.131 Safari/537.36",Macintosh,Chrome,92.0.4515.131,"OS X",10_15_7,5f461dd6c139dd6b46c7596cbd57cd79
200,1,"""","""","""","""","""",sampler,184,230977,0.0-6.0-178.0,"""","""","""","""","""","""","""","""","""","""","""","""","2021-08-13 21:13:22",141.134.106.114,"Mozilla/5.0 (Macintosh; Intel Mac OS X 10_15_7) AppleWebKit/537.36 (KHTML, like Gecko) Chrome/92.0.4515.131 Safari/537.36",Macintosh,Chrome,92.0.4515.131,"OS X",10_15_7,5f461dd6c139dd6b46c7596cbd57cd79
200,1,"""","""","""","""","""",sampler,185,230977,0.0-6.0-179.0,"""","""","""","""","""","""","""","""","""","""","""","""","2021-08-13 21:13:22",141.134.106.114,"Mozilla/5.0 (Macintosh; Intel Mac OS X 10_15_7) AppleWebKit/537.36 (KHTML, like Gecko) Chrome/92.0.4515.131 Safari/537.36",Macintosh,Chrome,92.0.4515.131,"OS X",10_15_7,5f461dd6c139dd6b46c7596cbd57cd79
200,1,"""","""","""","""","""",sampler,186,230977,0.0-6.0-180.0,"""","""","""","""","""","""","""","""","""","""","""","""","2021-08-13 21:13:22",141.134.106.114,"Mozilla/5.0 (Macintosh; Intel Mac OS X 10_15_7) AppleWebKit/537.36 (KHTML, like Gecko) Chrome/92.0.4515.131 Safari/537.36",Macintosh,Chrome,92.0.4515.131,"OS X",10_15_7,5f461dd6c139dd6b46c7596cbd57cd79
200,1,"""","""","""","""","""",sampler,187,230977,0.0-6.0-181.0,"""","""","""","""","""","""","""","""","""","""","""","""","2021-08-13 21:13:22",141.134.106.114,"Mozilla/5.0 (Macintosh; Intel Mac OS X 10_15_7) AppleWebKit/537.36 (KHTML, like Gecko) Chrome/92.0.4515.131 Safari/537.36",Macintosh,Chrome,92.0.4515.131,"OS X",10_15_7,5f461dd6c139dd6b46c7596cbd57cd79
200,1,"""","""","""","""","""",sampler,188,230977,0.0-6.0-182.0,"""","""","""","""","""","""","""","""","""","""","""","""","2021-08-13 21:13:22",141.134.106.114,"Mozilla/5.0 (Macintosh; Intel Mac OS X 10_15_7) AppleWebKit/537.36 (KHTML, like Gecko) Chrome/92.0.4515.131 Safari/537.36",Macintosh,Chrome,92.0.4515.131,"OS X",10_15_7,5f461dd6c139dd6b46c7596cbd57cd79
200,1,"""","""","""","""","""",sampler,189,230977,0.0-6.0-183.0,"""","""","""","""","""","""","""","""","""","""","""","""","2021-08-13 21:13:22",141.134.106.114,"Mozilla/5.0 (Macintosh; Intel Mac OS X 10_15_7) AppleWebKit/537.36 (KHTML, like Gecko) Chrome/92.0.4515.131 Safari/537.36",Macintosh,Chrome,92.0.4515.131,"OS X",10_15_7,5f461dd6c139dd6b46c7596cbd57cd79
200,1,"""","""","""","""","""",sampler,190,230977,0.0-6.0-184.0,"""","""","""","""","""","""","""","""","""","""","""","""","2021-08-13 21:13:22",141.134.106.114,"Mozilla/5.0 (Macintosh; Intel Mac OS X 10_15_7) AppleWebKit/537.36 (KHTML, like Gecko) Chrome/92.0.4515.131 Safari/537.36",Macintosh,Chrome,92.0.4515.131,"OS X",10_15_7,5f461dd6c139dd6b46c7596cbd57cd79
200,1,"""","""","""","""","""",sampler,191,230977,0.0-6.0-185.0,"""","""","""","""","""","""","""","""","""","""","""","""","2021-08-13 21:13:22",141.134.106.114,"Mozilla/5.0 (Macintosh; Intel Mac OS X 10_15_7) AppleWebKit/537.36 (KHTML, like Gecko) Chrome/92.0.4515.131 Safari/537.36",Macintosh,Chrome,92.0.4515.131,"OS X",10_15_7,5f461dd6c139dd6b46c7596cbd57cd79
200,1,"""","""","""","""","""",sampler,192,230977,0.0-6.0-186.0,"""","""","""","""","""","""","""","""","""","""","""","""","2021-08-13 21:13:22",141.134.106.114,"Mozilla/5.0 (Macintosh; Intel Mac OS X 10_15_7) AppleWebKit/537.36 (KHTML, like Gecko) Chrome/92.0.4515.131 Safari/537.36",Macintosh,Chrome,92.0.4515.131,"OS X",10_15_7,5f461dd6c139dd6b46c7596cbd57cd79
200,1,"""","""","""","""","""",sampler,193,230978,0.0-6.0-187.0,"""","""","""","""","""","""","""","""","""","""","""","""","2021-08-13 21:13:22",141.134.106.114,"Mozilla/5.0 (Macintosh; Intel Mac OS X 10_15_7) AppleWebKit/537.36 (KHTML, like Gecko) Chrome/92.0.4515.131 Safari/537.36",Macintosh,Chrome,92.0.4515.131,"OS X",10_15_7,5f461dd6c139dd6b46c7596cbd57cd79
200,1,"""","""","""","""","""",sampler,194,230978,0.0-6.0-188.0,"""","""","""","""","""","""","""","""","""","""","""","""","2021-08-13 21:13:22",141.134.106.114,"Mozilla/5.0 (Macintosh; Intel Mac OS X 10_15_7) AppleWebKit/537.36 (KHTML, like Gecko) Chrome/92.0.4515.131 Safari/537.36",Macintosh,Chrome,92.0.4515.131,"OS X",10_15_7,5f461dd6c139dd6b46c7596cbd57cd79
200,1,"""","""","""","""","""",sampler,195,230978,0.0-6.0-189.0,"""","""","""","""","""","""","""","""","""","""","""","""","2021-08-13 21:13:22",141.134.106.114,"Mozilla/5.0 (Macintosh; Intel Mac OS X 10_15_7) AppleWebKit/537.36 (KHTML, like Gecko) Chrome/92.0.4515.131 Safari/537.36",Macintosh,Chrome,92.0.4515.131,"OS X",10_15_7,5f461dd6c139dd6b46c7596cbd57cd79
200,1,"""","""","""","""","""",sampler,196,230978,0.0-6.0-190.0,"""","""","""","""","""","""","""","""","""","""","""","""","2021-08-13 21:13:22",141.134.106.114,"Mozilla/5.0 (Macintosh; Intel Mac OS X 10_15_7) AppleWebKit/537.36 (KHTML, like Gecko) Chrome/92.0.4515.131 Safari/537.36",Macintosh,Chrome,92.0.4515.131,"OS X",10_15_7,5f461dd6c139dd6b46c7596cbd57cd79
200,1,"""","""","""","""","""",sampler,197,230978,0.0-6.0-191.0,"""","""","""","""","""","""","""","""","""","""","""","""","2021-08-13 21:13:22",141.134.106.114,"Mozilla/5.0 (Macintosh; Intel Mac OS X 10_15_7) AppleWebKit/537.36 (KHTML, like Gecko) Chrome/92.0.4515.131 Safari/537.36",Macintosh,Chrome,92.0.4515.131,"OS X",10_15_7,5f461dd6c139dd6b46c7596cbd57cd79
200,1,"""","""","""","""","""",sampler,198,230978,0.0-6.0-192.0,"""","""","""","""","""","""","""","""","""","""","""","""","2021-08-13 21:13:22",141.134.106.114,"Mozilla/5.0 (Macintosh; Intel Mac OS X 10_15_7) AppleWebKit/537.36 (KHTML, like Gecko) Chrome/92.0.4515.131 Safari/537.36",Macintosh,Chrome,92.0.4515.131,"OS X",10_15_7,5f461dd6c139dd6b46c7596cbd57cd79
200,1,"""","""","""","""","""",sampler,199,230978,0.0-6.0-193.0,"""","""","""","""","""","""","""","""","""","""","""","""","2021-08-13 21:13:22",141.134.106.114,"Mozilla/5.0 (Macintosh; Intel Mac OS X 10_15_7) AppleWebKit/537.36 (KHTML, like Gecko) Chrome/92.0.4515.131 Safari/537.36",Macintosh,Chrome,92.0.4515.131,"OS X",10_15_7,5f461dd6c139dd6b46c7596cbd57cd79
200,1,"""","""","""","""","""",sampler,200,230978,0.0-6.0-194.0,"""","""","""","""","""","""","""","""","""","""","""","""","2021-08-13 21:13:22",141.134.106.114,"Mozilla/5.0 (Macintosh; Intel Mac OS X 10_15_7) AppleWebKit/537.36 (KHTML, like Gecko) Chrome/92.0.4515.131 Safari/537.36",Macintosh,Chrome,92.0.4515.131,"OS X",10_15_7,5f461dd6c139dd6b46c7596cbd57cd79
200,1,"""","""","""","""","""",sampler,201,230978,0.0-6.0-195.0,"""","""","""","""","""","""","""","""","""","""","""","""","2021-08-13 21:13:22",141.134.106.114,"Mozilla/5.0 (Macintosh; Intel Mac OS X 10_15_7) AppleWebKit/537.36 (KHTML, like Gecko) Chrome/92.0.4515.131 Safari/537.36",Macintosh,Chrome,92.0.4515.131,"OS X",10_15_7,5f461dd6c139dd6b46c7596cbd57cd79
200,1,"""","""","""","""","""",sampler,202,230978,0.0-6.0-196.0,"""","""","""","""","""","""","""","""","""","""","""","""","2021-08-13 21:13:22",141.134.106.114,"Mozilla/5.0 (Macintosh; Intel Mac OS X 10_15_7) AppleWebKit/537.36 (KHTML, like Gecko) Chrome/92.0.4515.131 Safari/537.36",Macintosh,Chrome,92.0.4515.131,"OS X",10_15_7,5f461dd6c139dd6b46c7596cbd57cd79
200,1,"""","""","""","""","""",sampler,203,230978,0.0-6.0-197.0,"""","""","""","""","""","""","""","""","""","""","""","""","2021-08-13 21:13:22",141.134.106.114,"Mozilla/5.0 (Macintosh; Intel Mac OS X 10_15_7) AppleWebKit/537.36 (KHTML, like Gecko) Chrome/92.0.4515.131 Safari/537.36",Macintosh,Chrome,92.0.4515.131,"OS X",10_15_7,5f461dd6c139dd6b46c7596cbd57cd79
200,1,"""","""","""","""","""",sampler,204,230978,0.0-6.0-198.0,"""","""","""","""","""","""","""","""","""","""","""","""","2021-08-13 21:13:22",141.134.106.114,"Mozilla/5.0 (Macintosh; Intel Mac OS X 10_15_7) AppleWebKit/537.36 (KHTML, like Gecko) Chrome/92.0.4515.131 Safari/537.36",Macintosh,Chrome,92.0.4515.131,"OS X",10_15_7,5f461dd6c139dd6b46c7596cbd57cd79
200,1,"""","""","""","""","""",sampler,205,230979,0.0-6.0-199.0,"""","""","""","""","""","""","""","""","""","""","""","""","2021-08-13 21:13:22",141.134.106.114,"Mozilla/5.0 (Macintosh; Intel Mac OS X 10_15_7) AppleWebKit/537.36 (KHTML, like Gecko) Chrome/92.0.4515.131 Safari/537.36",Macintosh,Chrome,92.0.4515.131,"OS X",10_15_7,5f461dd6c139dd6b46c7596cbd57cd79
200,1,"""","""","""","""","""",sampler,206,230979,0.0-6.0-200.0,"""","""","""","""","""","""","""","""","""","""","""","""","2021-08-13 21:13:22",141.134.106.114,"Mozilla/5.0 (Macintosh; Intel Mac OS X 10_15_7) AppleWebKit/537.36 (KHTML, like Gecko) Chrome/92.0.4515.131 Safari/537.36",Macintosh,Chrome,92.0.4515.131,"OS X",10_15_7,5f461dd6c139dd6b46c7596cbd57cd79
200,1,"""","""","""","""","""",sampler,207,230979,0.0-6.0-201.0,"""","""","""","""","""","""","""","""","""","""","""","""","2021-08-13 21:13:22",141.134.106.114,"Mozilla/5.0 (Macintosh; Intel Mac OS X 10_15_7) AppleWebKit/537.36 (KHTML, like Gecko) Chrome/92.0.4515.131 Safari/537.36",Macintosh,Chrome,92.0.4515.131,"OS X",10_15_7,5f461dd6c139dd6b46c7596cbd57cd79
200,1,"""","""","""","""","""",sampler,208,230979,0.0-6.0-202.0,"""","""","""","""","""","""","""","""","""","""","""","""","2021-08-13 21:13:22",141.134.106.114,"Mozilla/5.0 (Macintosh; Intel Mac OS X 10_15_7) AppleWebKit/537.36 (KHTML, like Gecko) Chrome/92.0.4515.131 Safari/537.36",Macintosh,Chrome,92.0.4515.131,"OS X",10_15_7,5f461dd6c139dd6b46c7596cbd57cd79
200,1,"""","""","""","""","""",sampler,209,230979,0.0-6.0-203.0,"""","""","""","""","""","""","""","""","""","""","""","""","2021-08-13 21:13:22",141.134.106.114,"Mozilla/5.0 (Macintosh; Intel Mac OS X 10_15_7) AppleWebKit/537.36 (KHTML, like Gecko) Chrome/92.0.4515.131 Safari/537.36",Macintosh,Chrome,92.0.4515.131,"OS X",10_15_7,5f461dd6c139dd6b46c7596cbd57cd79
200,1,"""","""","""","""","""",sampler,210,230979,0.0-6.0-204.0,"""","""","""","""","""","""","""","""","""","""","""","""","2021-08-13 21:13:22",141.134.106.114,"Mozilla/5.0 (Macintosh; Intel Mac OS X 10_15_7) AppleWebKit/537.36 (KHTML, like Gecko) Chrome/92.0.4515.131 Safari/537.36",Macintosh,Chrome,92.0.4515.131,"OS X",10_15_7,5f461dd6c139dd6b46c7596cbd57cd79
200,1,"""","""","""","""","""",sampler,211,230979,0.0-6.0-205.0,"""","""","""","""","""","""","""","""","""","""","""","""","2021-08-13 21:13:22",141.134.106.114,"Mozilla/5.0 (Macintosh; Intel Mac OS X 10_15_7) AppleWebKit/537.36 (KHTML, like Gecko) Chrome/92.0.4515.131 Safari/537.36",Macintosh,Chrome,92.0.4515.131,"OS X",10_15_7,5f461dd6c139dd6b46c7596cbd57cd79
200,1,"""","""","""","""","""",sampler,212,230979,0.0-6.0-206.0,"""","""","""","""","""","""","""","""","""","""","""","""","2021-08-13 21:13:22",141.134.106.114,"Mozilla/5.0 (Macintosh; Intel Mac OS X 10_15_7) AppleWebKit/537.36 (KHTML, like Gecko) Chrome/92.0.4515.131 Safari/537.36",Macintosh,Chrome,92.0.4515.131,"OS X",10_15_7,5f461dd6c139dd6b46c7596cbd57cd79
200,1,"""","""","""","""","""",sampler,213,230979,0.0-6.0-207.0,"""","""","""","""","""","""","""","""","""","""","""","""","2021-08-13 21:13:22",141.134.106.114,"Mozilla/5.0 (Macintosh; Intel Mac OS X 10_15_7) AppleWebKit/537.36 (KHTML, like Gecko) Chrome/92.0.4515.131 Safari/537.36",Macintosh,Chrome,92.0.4515.131,"OS X",10_15_7,5f461dd6c139dd6b46c7596cbd57cd79
200,1,"""","""","""","""","""",sampler,214,230979,0.0-6.0-208.0,"""","""","""","""","""","""","""","""","""","""","""","""","2021-08-13 21:13:22",141.134.106.114,"Mozilla/5.0 (Macintosh; Intel Mac OS X 10_15_7) AppleWebKit/537.36 (KHTML, like Gecko) Chrome/92.0.4515.131 Safari/537.36",Macintosh,Chrome,92.0.4515.131,"OS X",10_15_7,5f461dd6c139dd6b46c7596cbd57cd79
200,1,"""","""","""","""","""",sampler,215,230979,0.0-6.0-209.0,"""","""","""","""","""","""","""","""","""","""","""","""","2021-08-13 21:13:22",141.134.106.114,"Mozilla/5.0 (Macintosh; Intel Mac OS X 10_15_7) AppleWebKit/537.36 (KHTML, like Gecko) Chrome/92.0.4515.131 Safari/537.36",Macintosh,Chrome,92.0.4515.131,"OS X",10_15_7,5f461dd6c139dd6b46c7596cbd57cd79
200,1,"""","""","""","""","""",sampler,216,230979,0.0-6.0-210.0,"""","""","""","""","""","""","""","""","""","""","""","""","2021-08-13 21:13:22",141.134.106.114,"Mozilla/5.0 (Macintosh; Intel Mac OS X 10_15_7) AppleWebKit/537.36 (KHTML, like Gecko) Chrome/92.0.4515.131 Safari/537.36",Macintosh,Chrome,92.0.4515.131,"OS X",10_15_7,5f461dd6c139dd6b46c7596cbd57cd79
200,1,"""","""","""","""","""",sampler,217,230980,0.0-6.0-211.0,"""","""","""","""","""","""","""","""","""","""","""","""","2021-08-13 21:13:22",141.134.106.114,"Mozilla/5.0 (Macintosh; Intel Mac OS X 10_15_7) AppleWebKit/537.36 (KHTML, like Gecko) Chrome/92.0.4515.131 Safari/537.36",Macintosh,Chrome,92.0.4515.131,"OS X",10_15_7,5f461dd6c139dd6b46c7596cbd57cd79
200,1,"""","""","""","""","""",sampler,218,230980,0.0-6.0-212.0,"""","""","""","""","""","""","""","""","""","""","""","""","2021-08-13 21:13:22",141.134.106.114,"Mozilla/5.0 (Macintosh; Intel Mac OS X 10_15_7) AppleWebKit/537.36 (KHTML, like Gecko) Chrome/92.0.4515.131 Safari/537.36",Macintosh,Chrome,92.0.4515.131,"OS X",10_15_7,5f461dd6c139dd6b46c7596cbd57cd79
200,1,"""","""","""","""","""",sampler,219,230980,0.0-6.0-213.0,"""","""","""","""","""","""","""","""","""","""","""","""","2021-08-13 21:13:22",141.134.106.114,"Mozilla/5.0 (Macintosh; Intel Mac OS X 10_15_7) AppleWebKit/537.36 (KHTML, like Gecko) Chrome/92.0.4515.131 Safari/537.36",Macintosh,Chrome,92.0.4515.131,"OS X",10_15_7,5f461dd6c139dd6b46c7596cbd57cd79
200,1,"""","""","""","""","""",sampler,220,230980,0.0-6.0-214.0,"""","""","""","""","""","""","""","""","""","""","""","""","2021-08-13 21:13:22",141.134.106.114,"Mozilla/5.0 (Macintosh; Intel Mac OS X 10_15_7) AppleWebKit/537.36 (KHTML, like Gecko) Chrome/92.0.4515.131 Safari/537.36",Macintosh,Chrome,92.0.4515.131,"OS X",10_15_7,5f461dd6c139dd6b46c7596cbd57cd79
200,1,"""","""","""","""","""",sampler,221,230980,0.0-6.0-215.0,"""","""","""","""","""","""","""","""","""","""","""","""","2021-08-13 21:13:22",141.134.106.114,"Mozilla/5.0 (Macintosh; Intel Mac OS X 10_15_7) AppleWebKit/537.36 (KHTML, like Gecko) Chrome/92.0.4515.131 Safari/537.36",Macintosh,Chrome,92.0.4515.131,"OS X",10_15_7,5f461dd6c139dd6b46c7596cbd57cd79
200,1,"""","""","""","""","""",sampler,222,230980,0.0-6.0-216.0,"""","""","""","""","""","""","""","""","""","""","""","""","2021-08-13 21:13:22",141.134.106.114,"Mozilla/5.0 (Macintosh; Intel Mac OS X 10_15_7) AppleWebKit/537.36 (KHTML, like Gecko) Chrome/92.0.4515.131 Safari/537.36",Macintosh,Chrome,92.0.4515.131,"OS X",10_15_7,5f461dd6c139dd6b46c7596cbd57cd79
200,1,"""","""","""","""","""",sampler,223,230980,0.0-6.0-217.0,"""","""","""","""","""","""","""","""","""","""","""","""","2021-08-13 21:13:22",141.134.106.114,"Mozilla/5.0 (Macintosh; Intel Mac OS X 10_15_7) AppleWebKit/537.36 (KHTML, like Gecko) Chrome/92.0.4515.131 Safari/537.36",Macintosh,Chrome,92.0.4515.131,"OS X",10_15_7,5f461dd6c139dd6b46c7596cbd57cd79
200,1,"""","""","""","""","""",sampler,224,230981,0.0-6.0-218.0,"""","""","""","""","""","""","""","""","""","""","""","""","2021-08-13 21:13:22",141.134.106.114,"Mozilla/5.0 (Macintosh; Intel Mac OS X 10_15_7) AppleWebKit/537.36 (KHTML, like Gecko) Chrome/92.0.4515.131 Safari/537.36",Macintosh,Chrome,92.0.4515.131,"OS X",10_15_7,5f461dd6c139dd6b46c7596cbd57cd79
200,1,"""","""","""","""","""",sampler,225,230981,0.0-6.0-219.0,"""","""","""","""","""","""","""","""","""","""","""","""","2021-08-13 21:13:22",141.134.106.114,"Mozilla/5.0 (Macintosh; Intel Mac OS X 10_15_7) AppleWebKit/537.36 (KHTML, like Gecko) Chrome/92.0.4515.131 Safari/537.36",Macintosh,Chrome,92.0.4515.131,"OS X",10_15_7,5f461dd6c139dd6b46c7596cbd57cd79
200,1,"""","""","""","""","""",sampler,226,230981,0.0-6.0-220.0,"""","""","""","""","""","""","""","""","""","""","""","""","2021-08-13 21:13:22",141.134.106.114,"Mozilla/5.0 (Macintosh; Intel Mac OS X 10_15_7) AppleWebKit/537.36 (KHTML, like Gecko) Chrome/92.0.4515.131 Safari/537.36",Macintosh,Chrome,92.0.4515.131,"OS X",10_15_7,5f461dd6c139dd6b46c7596cbd57cd79
200,1,"""","""","""","""","""",sampler,227,230981,0.0-6.0-221.0,"""","""","""","""","""","""","""","""","""","""","""","""","2021-08-13 21:13:22",141.134.106.114,"Mozilla/5.0 (Macintosh; Intel Mac OS X 10_15_7) AppleWebKit/537.36 (KHTML, like Gecko) Chrome/92.0.4515.131 Safari/537.36",Macintosh,Chrome,92.0.4515.131,"OS X",10_15_7,5f461dd6c139dd6b46c7596cbd57cd79
200,1,"""","""","""","""","""",sampler,228,230982,0.0-6.0-222.0,"""","""","""","""","""","""","""","""","""","""","""","""","2021-08-13 21:13:22",141.134.106.114,"Mozilla/5.0 (Macintosh; Intel Mac OS X 10_15_7) AppleWebKit/537.36 (KHTML, like Gecko) Chrome/92.0.4515.131 Safari/537.36",Macintosh,Chrome,92.0.4515.131,"OS X",10_15_7,5f461dd6c139dd6b46c7596cbd57cd79
200,1,"""","""","""","""","""",sampler,229,230982,0.0-6.0-223.0,"""","""","""","""","""","""","""","""","""","""","""","""","2021-08-13 21:13:22",141.134.106.114,"Mozilla/5.0 (Macintosh; Intel Mac OS X 10_15_7) AppleWebKit/537.36 (KHTML, like Gecko) Chrome/92.0.4515.131 Safari/537.36",Macintosh,Chrome,92.0.4515.131,"OS X",10_15_7,5f461dd6c139dd6b46c7596cbd57cd79
200,1,"""","""","""","""","""",sampler,230,230982,0.0-6.0-224.0,"""","""","""","""","""","""","""","""","""","""","""","""","2021-08-13 21:13:22",141.134.106.114,"Mozilla/5.0 (Macintosh; Intel Mac OS X 10_15_7) AppleWebKit/537.36 (KHTML, like Gecko) Chrome/92.0.4515.131 Safari/537.36",Macintosh,Chrome,92.0.4515.131,"OS X",10_15_7,5f461dd6c139dd6b46c7596cbd57cd79
200,1,"""","""","""","""","""",sampler,231,230982,0.0-6.0-225.0,"""","""","""","""","""","""","""","""","""","""","""","""","2021-08-13 21:13:22",141.134.106.114,"Mozilla/5.0 (Macintosh; Intel Mac OS X 10_15_7) AppleWebKit/537.36 (KHTML, like Gecko) Chrome/92.0.4515.131 Safari/537.36",Macintosh,Chrome,92.0.4515.131,"OS X",10_15_7,5f461dd6c139dd6b46c7596cbd57cd79
200,1,"""","""","""","""","""",sampler,232,230982,0.0-6.0-226.0,"""","""","""","""","""","""","""","""","""","""","""","""","2021-08-13 21:13:22",141.134.106.114,"Mozilla/5.0 (Macintosh; Intel Mac OS X 10_15_7) AppleWebKit/537.36 (KHTML, like Gecko) Chrome/92.0.4515.131 Safari/537.36",Macintosh,Chrome,92.0.4515.131,"OS X",10_15_7,5f461dd6c139dd6b46c7596cbd57cd79
200,1,"""","""","""","""","""",sampler,233,230982,0.0-6.0-227.0,"""","""","""","""","""","""","""","""","""","""","""","""","2021-08-13 21:13:22",141.134.106.114,"Mozilla/5.0 (Macintosh; Intel Mac OS X 10_15_7) AppleWebKit/537.36 (KHTML, like Gecko) Chrome/92.0.4515.131 Safari/537.36",Macintosh,Chrome,92.0.4515.131,"OS X",10_15_7,5f461dd6c139dd6b46c7596cbd57cd79
200,1,"""","""","""","""","""",sampler,234,230982,0.0-6.0-228.0,"""","""","""","""","""","""","""","""","""","""","""","""","2021-08-13 21:13:22",141.134.106.114,"Mozilla/5.0 (Macintosh; Intel Mac OS X 10_15_7) AppleWebKit/537.36 (KHTML, like Gecko) Chrome/92.0.4515.131 Safari/537.36",Macintosh,Chrome,92.0.4515.131,"OS X",10_15_7,5f461dd6c139dd6b46c7596cbd57cd79
200,1,"""","""","""","""","""",sampler,235,230982,0.0-6.0-229.0,"""","""","""","""","""","""","""","""","""","""","""","""","2021-08-13 21:13:22",141.134.106.114,"Mozilla/5.0 (Macintosh; Intel Mac OS X 10_15_7) AppleWebKit/537.36 (KHTML, like Gecko) Chrome/92.0.4515.131 Safari/537.36",Macintosh,Chrome,92.0.4515.131,"OS X",10_15_7,5f461dd6c139dd6b46c7596cbd57cd79
200,1,"""","""","""","""","""",sampler,236,230982,0.0-6.0-230.0,"""","""","""","""","""","""","""","""","""","""","""","""","2021-08-13 21:13:22",141.134.106.114,"Mozilla/5.0 (Macintosh; Intel Mac OS X 10_15_7) AppleWebKit/537.36 (KHTML, like Gecko) Chrome/92.0.4515.131 Safari/537.36",Macintosh,Chrome,92.0.4515.131,"OS X",10_15_7,5f461dd6c139dd6b46c7596cbd57cd79
200,1,"""","""","""","""","""",sampler,237,230982,0.0-6.0-231.0,"""","""","""","""","""","""","""","""","""","""","""","""","2021-08-13 21:13:22",141.134.106.114,"Mozilla/5.0 (Macintosh; Intel Mac OS X 10_15_7) AppleWebKit/537.36 (KHTML, like Gecko) Chrome/92.0.4515.131 Safari/537.36",Macintosh,Chrome,92.0.4515.131,"OS X",10_15_7,5f461dd6c139dd6b46c7596cbd57cd79
200,1,"""","""","""","""","""",sampler,238,230982,0.0-6.0-232.0,"""","""","""","""","""","""","""","""","""","""","""","""","2021-08-13 21:13:22",141.134.106.114,"Mozilla/5.0 (Macintosh; Intel Mac OS X 10_15_7) AppleWebKit/537.36 (KHTML, like Gecko) Chrome/92.0.4515.131 Safari/537.36",Macintosh,Chrome,92.0.4515.131,"OS X",10_15_7,5f461dd6c139dd6b46c7596cbd57cd79
200,1,"""","""","""","""","""",sampler,239,230982,0.0-6.0-233.0,"""","""","""","""","""","""","""","""","""","""","""","""","2021-08-13 21:13:22",141.134.106.114,"Mozilla/5.0 (Macintosh; Intel Mac OS X 10_15_7) AppleWebKit/537.36 (KHTML, like Gecko) Chrome/92.0.4515.131 Safari/537.36",Macintosh,Chrome,92.0.4515.131,"OS X",10_15_7,5f461dd6c139dd6b46c7596cbd57cd79
200,1,"""","""","""","""","""",sampler,240,230983,0.0-6.0-234.0,"""","""","""","""","""","""","""","""","""","""","""","""","2021-08-13 21:13:22",141.134.106.114,"Mozilla/5.0 (Macintosh; Intel Mac OS X 10_15_7) AppleWebKit/537.36 (KHTML, like Gecko) Chrome/92.0.4515.131 Safari/537.36",Macintosh,Chrome,92.0.4515.131,"OS X",10_15_7,5f461dd6c139dd6b46c7596cbd57cd79
200,1,"""","""","""","""","""",sampler,241,230983,0.0-6.0-235.0,"""","""","""","""","""","""","""","""","""","""","""","""","2021-08-13 21:13:22",141.134.106.114,"Mozilla/5.0 (Macintosh; Intel Mac OS X 10_15_7) AppleWebKit/537.36 (KHTML, like Gecko) Chrome/92.0.4515.131 Safari/537.36",Macintosh,Chrome,92.0.4515.131,"OS X",10_15_7,5f461dd6c139dd6b46c7596cbd57cd79
200,1,"""","""","""","""","""",sampler,242,230983,0.0-6.0-236.0,"""","""","""","""","""","""","""","""","""","""","""","""","2021-08-13 21:13:22",141.134.106.114,"Mozilla/5.0 (Macintosh; Intel Mac OS X 10_15_7) AppleWebKit/537.36 (KHTML, like Gecko) Chrome/92.0.4515.131 Safari/537.36",Macintosh,Chrome,92.0.4515.131,"OS X",10_15_7,5f461dd6c139dd6b46c7596cbd57cd79
200,1,"""","""","""","""","""",sampler,243,230983,0.0-6.0-237.0,"""","""","""","""","""","""","""","""","""","""","""","""","2021-08-13 21:13:22",141.134.106.114,"Mozilla/5.0 (Macintosh; Intel Mac OS X 10_15_7) AppleWebKit/537.36 (KHTML, like Gecko) Chrome/92.0.4515.131 Safari/537.36",Macintosh,Chrome,92.0.4515.131,"OS X",10_15_7,5f461dd6c139dd6b46c7596cbd57cd79
200,1,"""","""","""","""","""",sampler,244,230983,0.0-6.0-238.0,"""","""","""","""","""","""","""","""","""","""","""","""","2021-08-13 21:13:22",141.134.106.114,"Mozilla/5.0 (Macintosh; Intel Mac OS X 10_15_7) AppleWebKit/537.36 (KHTML, like Gecko) Chrome/92.0.4515.131 Safari/537.36",Macintosh,Chrome,92.0.4515.131,"OS X",10_15_7,5f461dd6c139dd6b46c7596cbd57cd79
200,1,"""","""","""","""","""",sampler,245,230983,0.0-6.0-239.0,"""","""","""","""","""","""","""","""","""","""","""","""","2021-08-13 21:13:22",141.134.106.114,"Mozilla/5.0 (Macintosh; Intel Mac OS X 10_15_7) AppleWebKit/537.36 (KHTML, like Gecko) Chrome/92.0.4515.131 Safari/537.36",Macintosh,Chrome,92.0.4515.131,"OS X",10_15_7,5f461dd6c139dd6b46c7596cbd57cd79
200,1,"""","""","""","""","""",sampler,246,230983,0.0-6.0-240.0,"""","""","""","""","""","""","""","""","""","""","""","""","2021-08-13 21:13:22",141.134.106.114,"Mozilla/5.0 (Macintosh; Intel Mac OS X 10_15_7) AppleWebKit/537.36 (KHTML, like Gecko) Chrome/92.0.4515.131 Safari/537.36",Macintosh,Chrome,92.0.4515.131,"OS X",10_15_7,5f461dd6c139dd6b46c7596cbd57cd79
200,1,"""","""","""","""","""",sampler,247,230983,0.0-6.0-241.0,"""","""","""","""","""","""","""","""","""","""","""","""","2021-08-13 21:13:22",141.134.106.114,"Mozilla/5.0 (Macintosh; Intel Mac OS X 10_15_7) AppleWebKit/537.36 (KHTML, like Gecko) Chrome/92.0.4515.131 Safari/537.36",Macintosh,Chrome,92.0.4515.131,"OS X",10_15_7,5f461dd6c139dd6b46c7596cbd57cd79
200,1,"""","""","""","""","""",sampler,248,230983,0.0-6.0-242.0,"""","""","""","""","""","""","""","""","""","""","""","""","2021-08-13 21:13:22",141.134.106.114,"Mozilla/5.0 (Macintosh; Intel Mac OS X 10_15_7) AppleWebKit/537.36 (KHTML, like Gecko) Chrome/92.0.4515.131 Safari/537.36",Macintosh,Chrome,92.0.4515.131,"OS X",10_15_7,5f461dd6c139dd6b46c7596cbd57cd79
200,1,"""","""","""","""","""",sampler,249,230983,0.0-6.0-243.0,"""","""","""","""","""","""","""","""","""","""","""","""","2021-08-13 21:13:22",141.134.106.114,"Mozilla/5.0 (Macintosh; Intel Mac OS X 10_15_7) AppleWebKit/537.36 (KHTML, like Gecko) Chrome/92.0.4515.131 Safari/537.36",Macintosh,Chrome,92.0.4515.131,"OS X",10_15_7,5f461dd6c139dd6b46c7596cbd57cd79
200,1,"""","""","""","""","""",sampler,250,230983,0.0-6.0-244.0,"""","""","""","""","""","""","""","""","""","""","""","""","2021-08-13 21:13:22",141.134.106.114,"Mozilla/5.0 (Macintosh; Intel Mac OS X 10_15_7) AppleWebKit/537.36 (KHTML, like Gecko) Chrome/92.0.4515.131 Safari/537.36",Macintosh,Chrome,92.0.4515.131,"OS X",10_15_7,5f461dd6c139dd6b46c7596cbd57cd79
200,1,"""","""","""","""","""",sampler,251,230984,0.0-6.0-245.0,"""","""","""","""","""","""","""","""","""","""","""","""","2021-08-13 21:13:22",141.134.106.114,"Mozilla/5.0 (Macintosh; Intel Mac OS X 10_15_7) AppleWebKit/537.36 (KHTML, like Gecko) Chrome/92.0.4515.131 Safari/537.36",Macintosh,Chrome,92.0.4515.131,"OS X",10_15_7,5f461dd6c139dd6b46c7596cbd57cd79
200,1,"""","""","""","""","""",sampler,252,230984,0.0-6.0-246.0,"""","""","""","""","""","""","""","""","""","""","""","""","2021-08-13 21:13:22",141.134.106.114,"Mozilla/5.0 (Macintosh; Intel Mac OS X 10_15_7) AppleWebKit/537.36 (KHTML, like Gecko) Chrome/92.0.4515.131 Safari/537.36",Macintosh,Chrome,92.0.4515.131,"OS X",10_15_7,5f461dd6c139dd6b46c7596cbd57cd79
200,1,"""","""","""","""","""",sampler,253,230984,0.0-6.0-247.0,"""","""","""","""","""","""","""","""","""","""","""","""","2021-08-13 21:13:22",141.134.106.114,"Mozilla/5.0 (Macintosh; Intel Mac OS X 10_15_7) AppleWebKit/537.36 (KHTML, like Gecko) Chrome/92.0.4515.131 Safari/537.36",Macintosh,Chrome,92.0.4515.131,"OS X",10_15_7,5f461dd6c139dd6b46c7596cbd57cd79
200,1,"""","""","""","""","""",sampler,254,230984,0.0-6.0-248.0,"""","""","""","""","""","""","""","""","""","""","""","""","2021-08-13 21:13:22",141.134.106.114,"Mozilla/5.0 (Macintosh; Intel Mac OS X 10_15_7) AppleWebKit/537.36 (KHTML, like Gecko) Chrome/92.0.4515.131 Safari/537.36",Macintosh,Chrome,92.0.4515.131,"OS X",10_15_7,5f461dd6c139dd6b46c7596cbd57cd79
200,1,"""","""","""","""","""",sampler,255,230984,0.0-6.0-249.0,"""","""","""","""","""","""","""","""","""","""","""","""","2021-08-13 21:13:22",141.134.106.114,"Mozilla/5.0 (Macintosh; Intel Mac OS X 10_15_7) AppleWebKit/537.36 (KHTML, like Gecko) Chrome/92.0.4515.131 Safari/537.36",Macintosh,Chrome,92.0.4515.131,"OS X",10_15_7,5f461dd6c139dd6b46c7596cbd57cd79
200,1,"""","""","""","""","""",sampler,256,230985,0.0-6.0-250.0,"""","""","""","""","""","""","""","""","""","""","""","""","2021-08-13 21:13:22",141.134.106.114,"Mozilla/5.0 (Macintosh; Intel Mac OS X 10_15_7) AppleWebKit/537.36 (KHTML, like Gecko) Chrome/92.0.4515.131 Safari/537.36",Macintosh,Chrome,92.0.4515.131,"OS X",10_15_7,5f461dd6c139dd6b46c7596cbd57cd79
200,1,"""","""","""","""","""",sampler,257,230985,0.0-6.0-251.0,"""","""","""","""","""","""","""","""","""","""","""","""","2021-08-13 21:13:22",141.134.106.114,"Mozilla/5.0 (Macintosh; Intel Mac OS X 10_15_7) AppleWebKit/537.36 (KHTML, like Gecko) Chrome/92.0.4515.131 Safari/537.36",Macintosh,Chrome,92.0.4515.131,"OS X",10_15_7,5f461dd6c139dd6b46c7596cbd57cd79
200,1,"""","""","""","""","""",sampler,258,230985,0.0-6.0-252.0,"""","""","""","""","""","""","""","""","""","""","""","""","2021-08-13 21:13:22",141.134.106.114,"Mozilla/5.0 (Macintosh; Intel Mac OS X 10_15_7) AppleWebKit/537.36 (KHTML, like Gecko) Chrome/92.0.4515.131 Safari/537.36",Macintosh,Chrome,92.0.4515.131,"OS X",10_15_7,5f461dd6c139dd6b46c7596cbd57cd79
200,1,"""","""","""","""","""",sampler,259,230985,0.0-6.0-253.0,"""","""","""","""","""","""","""","""","""","""","""","""","2021-08-13 21:13:22",141.134.106.114,"Mozilla/5.0 (Macintosh; Intel Mac OS X 10_15_7) AppleWebKit/537.36 (KHTML, like Gecko) Chrome/92.0.4515.131 Safari/537.36",Macintosh,Chrome,92.0.4515.131,"OS X",10_15_7,5f461dd6c139dd6b46c7596cbd57cd79
200,1,"""","""","""","""","""",sampler,260,230985,0.0-6.0-254.0,"""","""","""","""","""","""","""","""","""","""","""","""","2021-08-13 21:13:22",141.134.106.114,"Mozilla/5.0 (Macintosh; Intel Mac OS X 10_15_7) AppleWebKit/537.36 (KHTML, like Gecko) Chrome/92.0.4515.131 Safari/537.36",Macintosh,Chrome,92.0.4515.131,"OS X",10_15_7,5f461dd6c139dd6b46c7596cbd57cd79
200,1,"""","""","""","""","""",sampler,261,230985,0.0-6.0-255.0,"""","""","""","""","""","""","""","""","""","""","""","""","2021-08-13 21:13:22",141.134.106.114,"Mozilla/5.0 (Macintosh; Intel Mac OS X 10_15_7) AppleWebKit/537.36 (KHTML, like Gecko) Chrome/92.0.4515.131 Safari/537.36",Macintosh,Chrome,92.0.4515.131,"OS X",10_15_7,5f461dd6c139dd6b46c7596cbd57cd79
200,1,"""","""","""","""","""",sampler,262,230985,0.0-6.0-256.0,"""","""","""","""","""","""","""","""","""","""","""","""","2021-08-13 21:13:22",141.134.106.114,"Mozilla/5.0 (Macintosh; Intel Mac OS X 10_15_7) AppleWebKit/537.36 (KHTML, like Gecko) Chrome/92.0.4515.131 Safari/537.36",Macintosh,Chrome,92.0.4515.131,"OS X",10_15_7,5f461dd6c139dd6b46c7596cbd57cd79
200,1,"""","""","""","""","""",sampler,263,230985,0.0-6.0-257.0,"""","""","""","""","""","""","""","""","""","""","""","""","2021-08-13 21:13:22",141.134.106.114,"Mozilla/5.0 (Macintosh; Intel Mac OS X 10_15_7) AppleWebKit/537.36 (KHTML, like Gecko) Chrome/92.0.4515.131 Safari/537.36",Macintosh,Chrome,92.0.4515.131,"OS X",10_15_7,5f461dd6c139dd6b46c7596cbd57cd79
200,1,"""","""","""","""","""",sampler,264,230985,0.0-6.0-258.0,"""","""","""","""","""","""","""","""","""","""","""","""","2021-08-13 21:13:22",141.134.106.114,"Mozilla/5.0 (Macintosh; Intel Mac OS X 10_15_7) AppleWebKit/537.36 (KHTML, like Gecko) Chrome/92.0.4515.131 Safari/537.36",Macintosh,Chrome,92.0.4515.131,"OS X",10_15_7,5f461dd6c139dd6b46c7596cbd57cd79
200,1,"""","""","""","""","""",sampler,265,230986,0.0-6.0-259.0,"""","""","""","""","""","""","""","""","""","""","""","""","2021-08-13 21:13:22",141.134.106.114,"Mozilla/5.0 (Macintosh; Intel Mac OS X 10_15_7) AppleWebKit/537.36 (KHTML, like Gecko) Chrome/92.0.4515.131 Safari/537.36",Macintosh,Chrome,92.0.4515.131,"OS X",10_15_7,5f461dd6c139dd6b46c7596cbd57cd79
200,1,"""","""","""","""","""",sampler,266,230986,0.0-6.0-260.0,"""","""","""","""","""","""","""","""","""","""","""","""","2021-08-13 21:13:22",141.134.106.114,"Mozilla/5.0 (Macintosh; Intel Mac OS X 10_15_7) AppleWebKit/537.36 (KHTML, like Gecko) Chrome/92.0.4515.131 Safari/537.36",Macintosh,Chrome,92.0.4515.131,"OS X",10_15_7,5f461dd6c139dd6b46c7596cbd57cd79
200,1,"""","""","""","""","""",sampler,267,230986,0.0-6.0-261.0,"""","""","""","""","""","""","""","""","""","""","""","""","2021-08-13 21:13:22",141.134.106.114,"Mozilla/5.0 (Macintosh; Intel Mac OS X 10_15_7) AppleWebKit/537.36 (KHTML, like Gecko) Chrome/92.0.4515.131 Safari/537.36",Macintosh,Chrome,92.0.4515.131,"OS X",10_15_7,5f461dd6c139dd6b46c7596cbd57cd79
200,1,"""","""","""","""","""",sampler,268,230986,0.0-6.0-262.0,"""","""","""","""","""","""","""","""","""","""","""","""","2021-08-13 21:13:22",141.134.106.114,"Mozilla/5.0 (Macintosh; Intel Mac OS X 10_15_7) AppleWebKit/537.36 (KHTML, like Gecko) Chrome/92.0.4515.131 Safari/537.36",Macintosh,Chrome,92.0.4515.131,"OS X",10_15_7,5f461dd6c139dd6b46c7596cbd57cd79
200,1,"""","""","""","""","""",sampler,269,230986,0.0-6.0-263.0,"""","""","""","""","""","""","""","""","""","""","""","""","2021-08-13 21:13:22",141.134.106.114,"Mozilla/5.0 (Macintosh; Intel Mac OS X 10_15_7) AppleWebKit/537.36 (KHTML, like Gecko) Chrome/92.0.4515.131 Safari/537.36",Macintosh,Chrome,92.0.4515.131,"OS X",10_15_7,5f461dd6c139dd6b46c7596cbd57cd79
200,1,"""","""","""","""","""",sampler,270,230986,0.0-6.0-264.0,"""","""","""","""","""","""","""","""","""","""","""","""","2021-08-13 21:13:22",141.134.106.114,"Mozilla/5.0 (Macintosh; Intel Mac OS X 10_15_7) AppleWebKit/537.36 (KHTML, like Gecko) Chrome/92.0.4515.131 Safari/537.36",Macintosh,Chrome,92.0.4515.131,"OS X",10_15_7,5f461dd6c139dd6b46c7596cbd57cd79
