run_id,condition,success,timeout,failed_images,failed_audio,failed_video,trial_type,trial_index,time_elapsed,internal_node_id,rt,stimulus,key_press,responses,view_history,correct,image_click,points,sd,points2,total_earn,button_pressed,recorded_at,ip,user_agent,device,browser,browser_version,platform,platform_version,source_code_version
210,1,true,false,"""","""","""",preload,0,1196,0.0-0.0,"""","""","""","""","""","""","""","""","""","""","""","""","2021-08-13 22:30:13",189.218.23.19,"Mozilla/5.0 (Macintosh; Intel Mac OS X 10_15_7) AppleWebKit/537.36 (KHTML, like Gecko) Chrome/92.0.4515.131 Safari/537.36",Macintosh,Chrome,92.0.4515.131,"OS X",10_15_7,5f461dd6c139dd6b46c7596cbd57cd79
210,1,"""","""","""","""","""",html-keyboard-response,1,48906,0.0-1.0,47707,"<font size=15>Welcome to our experiment!</font><br><br><br><i> Press <b>space bar</b> to begin.</i>",32,"""","""","""","""","""","""","""","""","""","2021-08-13 22:30:13",189.218.23.19,"Mozilla/5.0 (Macintosh; Intel Mac OS X 10_15_7) AppleWebKit/537.36 (KHTML, like Gecko) Chrome/92.0.4515.131 Safari/537.36",Macintosh,Chrome,92.0.4515.131,"OS X",10_15_7,5f461dd6c139dd6b46c7596cbd57cd79
210,1,"""","""","""","""","""",survey-multi-choice,2,60966,0.0-2.0,12053,"""","""","{""Q0"":""Yes"",""Q1"":""Yes"",""Q2"":""Yes"",""Q3"":""Yes""}","""","""","""","""","""","""","""","""","2021-08-13 22:30:13",189.218.23.19,"Mozilla/5.0 (Macintosh; Intel Mac OS X 10_15_7) AppleWebKit/537.36 (KHTML, like Gecko) Chrome/92.0.4515.131 Safari/537.36",Macintosh,Chrome,92.0.4515.131,"OS X",10_15_7,5f461dd6c139dd6b46c7596cbd57cd79
210,1,"""","""","""","""","""",survey-html-form,3,74781,0.0-3.0,13808.5,"""","""","{""gender"":""female"",""age"":""21"",""hand"":""right"",""mail"":""6112c8ac433bc260943bb75e""}","""","""","""","""","""","""","""","""","2021-08-13 22:30:13",189.218.23.19,"Mozilla/5.0 (Macintosh; Intel Mac OS X 10_15_7) AppleWebKit/537.36 (KHTML, like Gecko) Chrome/92.0.4515.131 Safari/537.36",Macintosh,Chrome,92.0.4515.131,"OS X",10_15_7,5f461dd6c139dd6b46c7596cbd57cd79
210,1,true,"""","""","""","""",fullscreen,4,88167,0.0-4.0,"""","""","""","""","""","""","""","""","""","""","""","""","2021-08-13 22:30:13",189.218.23.19,"Mozilla/5.0 (Macintosh; Intel Mac OS X 10_15_7) AppleWebKit/537.36 (KHTML, like Gecko) Chrome/92.0.4515.131 Safari/537.36",Macintosh,Chrome,92.0.4515.131,"OS X",10_15_7,5f461dd6c139dd6b46c7596cbd57cd79
210,1,"""","""","""","""","""",multikey-instructions,5,379259,0.0-5.0,291088,"""","""","""","[{""page_index"":0,""viewing_time"":86884},{""page_index"":1,""viewing_time"":21496},{""page_index"":2,""viewing_time"":19209},{""page_index"":3,""viewing_time"":16635},{""page_index"":4,""viewing_time"":23417},{""page_index"":5,""viewing_time"":11610},{""page_index"":6,""viewing_time"":9377},{""page_index"":7,""viewing_time"":4883},{""page_index"":8,""viewing_time"":29529},{""page_index"":9,""viewing_time"":8432},{""page_index"":10,""viewing_time"":27033},{""page_index"":11,""viewing_time"":17204},{""page_index"":10,""viewing_time"":12792},{""page_index"":11,""viewing_time"":2586}]","""","""","""","""","""","""","""","2021-08-13 22:30:13",189.218.23.19,"Mozilla/5.0 (Macintosh; Intel Mac OS X 10_15_7) AppleWebKit/537.36 (KHTML, like Gecko) Chrome/92.0.4515.131 Safari/537.36",Macintosh,Chrome,92.0.4515.131,"OS X",10_15_7,5f461dd6c139dd6b46c7596cbd57cd79
210,1,"""","""","""","""","""",sampler,6,400693,0.0-6.0-0.0,21025,img/Cobalt.png,"""","""","""",false,-1,0.06257468410054479,5,"""","""","""","2021-08-13 22:30:13",189.218.23.19,"Mozilla/5.0 (Macintosh; Intel Mac OS X 10_15_7) AppleWebKit/537.36 (KHTML, like Gecko) Chrome/92.0.4515.131 Safari/537.36",Macintosh,Chrome,92.0.4515.131,"OS X",10_15_7,5f461dd6c139dd6b46c7596cbd57cd79
210,1,"""","""","""","""","""",sampler,7,400697,0.0-6.0-1.0,"""","""","""","""","""","""","""","""","""","""","""","""","2021-08-13 22:30:13",189.218.23.19,"Mozilla/5.0 (Macintosh; Intel Mac OS X 10_15_7) AppleWebKit/537.36 (KHTML, like Gecko) Chrome/92.0.4515.131 Safari/537.36",Macintosh,Chrome,92.0.4515.131,"OS X",10_15_7,5f461dd6c139dd6b46c7596cbd57cd79
210,1,"""","""","""","""","""",sampler,8,400697,0.0-6.0-2.0,"""","""","""","""","""","""","""","""","""","""","""","""","2021-08-13 22:30:13",189.218.23.19,"Mozilla/5.0 (Macintosh; Intel Mac OS X 10_15_7) AppleWebKit/537.36 (KHTML, like Gecko) Chrome/92.0.4515.131 Safari/537.36",Macintosh,Chrome,92.0.4515.131,"OS X",10_15_7,5f461dd6c139dd6b46c7596cbd57cd79
210,1,"""","""","""","""","""",sampler,9,400697,0.0-6.0-3.0,"""","""","""","""","""","""","""","""","""","""","""","""","2021-08-13 22:30:13",189.218.23.19,"Mozilla/5.0 (Macintosh; Intel Mac OS X 10_15_7) AppleWebKit/537.36 (KHTML, like Gecko) Chrome/92.0.4515.131 Safari/537.36",Macintosh,Chrome,92.0.4515.131,"OS X",10_15_7,5f461dd6c139dd6b46c7596cbd57cd79
210,1,"""","""","""","""","""",sampler,10,400697,0.0-6.0-4.0,"""","""","""","""","""","""","""","""","""","""","""","""","2021-08-13 22:30:13",189.218.23.19,"Mozilla/5.0 (Macintosh; Intel Mac OS X 10_15_7) AppleWebKit/537.36 (KHTML, like Gecko) Chrome/92.0.4515.131 Safari/537.36",Macintosh,Chrome,92.0.4515.131,"OS X",10_15_7,5f461dd6c139dd6b46c7596cbd57cd79
210,1,"""","""","""","""","""",sampler,11,400698,0.0-6.0-5.0,"""","""","""","""","""","""","""","""","""","""","""","""","2021-08-13 22:30:13",189.218.23.19,"Mozilla/5.0 (Macintosh; Intel Mac OS X 10_15_7) AppleWebKit/537.36 (KHTML, like Gecko) Chrome/92.0.4515.131 Safari/537.36",Macintosh,Chrome,92.0.4515.131,"OS X",10_15_7,5f461dd6c139dd6b46c7596cbd57cd79
210,1,"""","""","""","""","""",sampler,12,400698,0.0-6.0-6.0,"""","""","""","""","""","""","""","""","""","""","""","""","2021-08-13 22:30:13",189.218.23.19,"Mozilla/5.0 (Macintosh; Intel Mac OS X 10_15_7) AppleWebKit/537.36 (KHTML, like Gecko) Chrome/92.0.4515.131 Safari/537.36",Macintosh,Chrome,92.0.4515.131,"OS X",10_15_7,5f461dd6c139dd6b46c7596cbd57cd79
210,1,"""","""","""","""","""",sampler,13,400698,0.0-6.0-7.0,"""","""","""","""","""","""","""","""","""","""","""","""","2021-08-13 22:30:13",189.218.23.19,"Mozilla/5.0 (Macintosh; Intel Mac OS X 10_15_7) AppleWebKit/537.36 (KHTML, like Gecko) Chrome/92.0.4515.131 Safari/537.36",Macintosh,Chrome,92.0.4515.131,"OS X",10_15_7,5f461dd6c139dd6b46c7596cbd57cd79
210,1,"""","""","""","""","""",sampler,14,400698,0.0-6.0-8.0,"""","""","""","""","""","""","""","""","""","""","""","""","2021-08-13 22:30:13",189.218.23.19,"Mozilla/5.0 (Macintosh; Intel Mac OS X 10_15_7) AppleWebKit/537.36 (KHTML, like Gecko) Chrome/92.0.4515.131 Safari/537.36",Macintosh,Chrome,92.0.4515.131,"OS X",10_15_7,5f461dd6c139dd6b46c7596cbd57cd79
210,1,"""","""","""","""","""",sampler,15,400699,0.0-6.0-9.0,"""","""","""","""","""","""","""","""","""","""","""","""","2021-08-13 22:30:13",189.218.23.19,"Mozilla/5.0 (Macintosh; Intel Mac OS X 10_15_7) AppleWebKit/537.36 (KHTML, like Gecko) Chrome/92.0.4515.131 Safari/537.36",Macintosh,Chrome,92.0.4515.131,"OS X",10_15_7,5f461dd6c139dd6b46c7596cbd57cd79
210,1,"""","""","""","""","""",sampler,16,400699,0.0-6.0-10.0,"""","""","""","""","""","""","""","""","""","""","""","""","2021-08-13 22:30:13",189.218.23.19,"Mozilla/5.0 (Macintosh; Intel Mac OS X 10_15_7) AppleWebKit/537.36 (KHTML, like Gecko) Chrome/92.0.4515.131 Safari/537.36",Macintosh,Chrome,92.0.4515.131,"OS X",10_15_7,5f461dd6c139dd6b46c7596cbd57cd79
210,1,"""","""","""","""","""",sampler,17,400699,0.0-6.0-11.0,"""","""","""","""","""","""","""","""","""","""","""","""","2021-08-13 22:30:13",189.218.23.19,"Mozilla/5.0 (Macintosh; Intel Mac OS X 10_15_7) AppleWebKit/537.36 (KHTML, like Gecko) Chrome/92.0.4515.131 Safari/537.36",Macintosh,Chrome,92.0.4515.131,"OS X",10_15_7,5f461dd6c139dd6b46c7596cbd57cd79
210,1,"""","""","""","""","""",sampler,18,400699,0.0-6.0-12.0,"""","""","""","""","""","""","""","""","""","""","""","""","2021-08-13 22:30:13",189.218.23.19,"Mozilla/5.0 (Macintosh; Intel Mac OS X 10_15_7) AppleWebKit/537.36 (KHTML, like Gecko) Chrome/92.0.4515.131 Safari/537.36",Macintosh,Chrome,92.0.4515.131,"OS X",10_15_7,5f461dd6c139dd6b46c7596cbd57cd79
210,1,"""","""","""","""","""",sampler,19,400699,0.0-6.0-13.0,"""","""","""","""","""","""","""","""","""","""","""","""","2021-08-13 22:30:13",189.218.23.19,"Mozilla/5.0 (Macintosh; Intel Mac OS X 10_15_7) AppleWebKit/537.36 (KHTML, like Gecko) Chrome/92.0.4515.131 Safari/537.36",Macintosh,Chrome,92.0.4515.131,"OS X",10_15_7,5f461dd6c139dd6b46c7596cbd57cd79
210,1,"""","""","""","""","""",sampler,20,400700,0.0-6.0-14.0,"""","""","""","""","""","""","""","""","""","""","""","""","2021-08-13 22:30:13",189.218.23.19,"Mozilla/5.0 (Macintosh; Intel Mac OS X 10_15_7) AppleWebKit/537.36 (KHTML, like Gecko) Chrome/92.0.4515.131 Safari/537.36",Macintosh,Chrome,92.0.4515.131,"OS X",10_15_7,5f461dd6c139dd6b46c7596cbd57cd79
210,1,"""","""","""","""","""",sampler,21,400700,0.0-6.0-15.0,"""","""","""","""","""","""","""","""","""","""","""","""","2021-08-13 22:30:13",189.218.23.19,"Mozilla/5.0 (Macintosh; Intel Mac OS X 10_15_7) AppleWebKit/537.36 (KHTML, like Gecko) Chrome/92.0.4515.131 Safari/537.36",Macintosh,Chrome,92.0.4515.131,"OS X",10_15_7,5f461dd6c139dd6b46c7596cbd57cd79
210,1,"""","""","""","""","""",sampler,22,400700,0.0-6.0-16.0,"""","""","""","""","""","""","""","""","""","""","""","""","2021-08-13 22:30:13",189.218.23.19,"Mozilla/5.0 (Macintosh; Intel Mac OS X 10_15_7) AppleWebKit/537.36 (KHTML, like Gecko) Chrome/92.0.4515.131 Safari/537.36",Macintosh,Chrome,92.0.4515.131,"OS X",10_15_7,5f461dd6c139dd6b46c7596cbd57cd79
210,1,"""","""","""","""","""",sampler,23,400700,0.0-6.0-17.0,"""","""","""","""","""","""","""","""","""","""","""","""","2021-08-13 22:30:13",189.218.23.19,"Mozilla/5.0 (Macintosh; Intel Mac OS X 10_15_7) AppleWebKit/537.36 (KHTML, like Gecko) Chrome/92.0.4515.131 Safari/537.36",Macintosh,Chrome,92.0.4515.131,"OS X",10_15_7,5f461dd6c139dd6b46c7596cbd57cd79
210,1,"""","""","""","""","""",sampler,24,400700,0.0-6.0-18.0,"""","""","""","""","""","""","""","""","""","""","""","""","2021-08-13 22:30:13",189.218.23.19,"Mozilla/5.0 (Macintosh; Intel Mac OS X 10_15_7) AppleWebKit/537.36 (KHTML, like Gecko) Chrome/92.0.4515.131 Safari/537.36",Macintosh,Chrome,92.0.4515.131,"OS X",10_15_7,5f461dd6c139dd6b46c7596cbd57cd79
210,1,"""","""","""","""","""",sampler,25,400701,0.0-6.0-19.0,"""","""","""","""","""","""","""","""","""","""","""","""","2021-08-13 22:30:13",189.218.23.19,"Mozilla/5.0 (Macintosh; Intel Mac OS X 10_15_7) AppleWebKit/537.36 (KHTML, like Gecko) Chrome/92.0.4515.131 Safari/537.36",Macintosh,Chrome,92.0.4515.131,"OS X",10_15_7,5f461dd6c139dd6b46c7596cbd57cd79
210,1,"""","""","""","""","""",sampler,26,400701,0.0-6.0-20.0,"""","""","""","""","""","""","""","""","""","""","""","""","2021-08-13 22:30:13",189.218.23.19,"Mozilla/5.0 (Macintosh; Intel Mac OS X 10_15_7) AppleWebKit/537.36 (KHTML, like Gecko) Chrome/92.0.4515.131 Safari/537.36",Macintosh,Chrome,92.0.4515.131,"OS X",10_15_7,5f461dd6c139dd6b46c7596cbd57cd79
210,1,"""","""","""","""","""",sampler,27,400701,0.0-6.0-21.0,"""","""","""","""","""","""","""","""","""","""","""","""","2021-08-13 22:30:13",189.218.23.19,"Mozilla/5.0 (Macintosh; Intel Mac OS X 10_15_7) AppleWebKit/537.36 (KHTML, like Gecko) Chrome/92.0.4515.131 Safari/537.36",Macintosh,Chrome,92.0.4515.131,"OS X",10_15_7,5f461dd6c139dd6b46c7596cbd57cd79
210,1,"""","""","""","""","""",sampler,28,400701,0.0-6.0-22.0,"""","""","""","""","""","""","""","""","""","""","""","""","2021-08-13 22:30:13",189.218.23.19,"Mozilla/5.0 (Macintosh; Intel Mac OS X 10_15_7) AppleWebKit/537.36 (KHTML, like Gecko) Chrome/92.0.4515.131 Safari/537.36",Macintosh,Chrome,92.0.4515.131,"OS X",10_15_7,5f461dd6c139dd6b46c7596cbd57cd79
210,1,"""","""","""","""","""",sampler,29,400701,0.0-6.0-23.0,"""","""","""","""","""","""","""","""","""","""","""","""","2021-08-13 22:30:13",189.218.23.19,"Mozilla/5.0 (Macintosh; Intel Mac OS X 10_15_7) AppleWebKit/537.36 (KHTML, like Gecko) Chrome/92.0.4515.131 Safari/537.36",Macintosh,Chrome,92.0.4515.131,"OS X",10_15_7,5f461dd6c139dd6b46c7596cbd57cd79
210,1,"""","""","""","""","""",sampler,30,400701,0.0-6.0-24.0,"""","""","""","""","""","""","""","""","""","""","""","""","2021-08-13 22:30:13",189.218.23.19,"Mozilla/5.0 (Macintosh; Intel Mac OS X 10_15_7) AppleWebKit/537.36 (KHTML, like Gecko) Chrome/92.0.4515.131 Safari/537.36",Macintosh,Chrome,92.0.4515.131,"OS X",10_15_7,5f461dd6c139dd6b46c7596cbd57cd79
210,1,"""","""","""","""","""",sampler,31,400702,0.0-6.0-25.0,"""","""","""","""","""","""","""","""","""","""","""","""","2021-08-13 22:30:13",189.218.23.19,"Mozilla/5.0 (Macintosh; Intel Mac OS X 10_15_7) AppleWebKit/537.36 (KHTML, like Gecko) Chrome/92.0.4515.131 Safari/537.36",Macintosh,Chrome,92.0.4515.131,"OS X",10_15_7,5f461dd6c139dd6b46c7596cbd57cd79
210,1,"""","""","""","""","""",sampler,32,400702,0.0-6.0-26.0,"""","""","""","""","""","""","""","""","""","""","""","""","2021-08-13 22:30:13",189.218.23.19,"Mozilla/5.0 (Macintosh; Intel Mac OS X 10_15_7) AppleWebKit/537.36 (KHTML, like Gecko) Chrome/92.0.4515.131 Safari/537.36",Macintosh,Chrome,92.0.4515.131,"OS X",10_15_7,5f461dd6c139dd6b46c7596cbd57cd79
210,1,"""","""","""","""","""",sampler,33,400702,0.0-6.0-27.0,"""","""","""","""","""","""","""","""","""","""","""","""","2021-08-13 22:30:13",189.218.23.19,"Mozilla/5.0 (Macintosh; Intel Mac OS X 10_15_7) AppleWebKit/537.36 (KHTML, like Gecko) Chrome/92.0.4515.131 Safari/537.36",Macintosh,Chrome,92.0.4515.131,"OS X",10_15_7,5f461dd6c139dd6b46c7596cbd57cd79
210,1,"""","""","""","""","""",sampler,34,400703,0.0-6.0-28.0,"""","""","""","""","""","""","""","""","""","""","""","""","2021-08-13 22:30:13",189.218.23.19,"Mozilla/5.0 (Macintosh; Intel Mac OS X 10_15_7) AppleWebKit/537.36 (KHTML, like Gecko) Chrome/92.0.4515.131 Safari/537.36",Macintosh,Chrome,92.0.4515.131,"OS X",10_15_7,5f461dd6c139dd6b46c7596cbd57cd79
210,1,"""","""","""","""","""",sampler,35,400703,0.0-6.0-29.0,"""","""","""","""","""","""","""","""","""","""","""","""","2021-08-13 22:30:13",189.218.23.19,"Mozilla/5.0 (Macintosh; Intel Mac OS X 10_15_7) AppleWebKit/537.36 (KHTML, like Gecko) Chrome/92.0.4515.131 Safari/537.36",Macintosh,Chrome,92.0.4515.131,"OS X",10_15_7,5f461dd6c139dd6b46c7596cbd57cd79
210,1,"""","""","""","""","""",sampler,36,400703,0.0-6.0-30.0,"""","""","""","""","""","""","""","""","""","""","""","""","2021-08-13 22:30:13",189.218.23.19,"Mozilla/5.0 (Macintosh; Intel Mac OS X 10_15_7) AppleWebKit/537.36 (KHTML, like Gecko) Chrome/92.0.4515.131 Safari/537.36",Macintosh,Chrome,92.0.4515.131,"OS X",10_15_7,5f461dd6c139dd6b46c7596cbd57cd79
210,1,"""","""","""","""","""",sampler,37,400703,0.0-6.0-31.0,"""","""","""","""","""","""","""","""","""","""","""","""","2021-08-13 22:30:13",189.218.23.19,"Mozilla/5.0 (Macintosh; Intel Mac OS X 10_15_7) AppleWebKit/537.36 (KHTML, like Gecko) Chrome/92.0.4515.131 Safari/537.36",Macintosh,Chrome,92.0.4515.131,"OS X",10_15_7,5f461dd6c139dd6b46c7596cbd57cd79
210,1,"""","""","""","""","""",sampler,38,400704,0.0-6.0-32.0,"""","""","""","""","""","""","""","""","""","""","""","""","2021-08-13 22:30:13",189.218.23.19,"Mozilla/5.0 (Macintosh; Intel Mac OS X 10_15_7) AppleWebKit/537.36 (KHTML, like Gecko) Chrome/92.0.4515.131 Safari/537.36",Macintosh,Chrome,92.0.4515.131,"OS X",10_15_7,5f461dd6c139dd6b46c7596cbd57cd79
210,1,"""","""","""","""","""",sampler,39,400704,0.0-6.0-33.0,"""","""","""","""","""","""","""","""","""","""","""","""","2021-08-13 22:30:13",189.218.23.19,"Mozilla/5.0 (Macintosh; Intel Mac OS X 10_15_7) AppleWebKit/537.36 (KHTML, like Gecko) Chrome/92.0.4515.131 Safari/537.36",Macintosh,Chrome,92.0.4515.131,"OS X",10_15_7,5f461dd6c139dd6b46c7596cbd57cd79
210,1,"""","""","""","""","""",sampler,40,400704,0.0-6.0-34.0,"""","""","""","""","""","""","""","""","""","""","""","""","2021-08-13 22:30:13",189.218.23.19,"Mozilla/5.0 (Macintosh; Intel Mac OS X 10_15_7) AppleWebKit/537.36 (KHTML, like Gecko) Chrome/92.0.4515.131 Safari/537.36",Macintosh,Chrome,92.0.4515.131,"OS X",10_15_7,5f461dd6c139dd6b46c7596cbd57cd79
210,1,"""","""","""","""","""",sampler,41,400704,0.0-6.0-35.0,"""","""","""","""","""","""","""","""","""","""","""","""","2021-08-13 22:30:13",189.218.23.19,"Mozilla/5.0 (Macintosh; Intel Mac OS X 10_15_7) AppleWebKit/537.36 (KHTML, like Gecko) Chrome/92.0.4515.131 Safari/537.36",Macintosh,Chrome,92.0.4515.131,"OS X",10_15_7,5f461dd6c139dd6b46c7596cbd57cd79
210,1,"""","""","""","""","""",sampler,42,400705,0.0-6.0-36.0,"""","""","""","""","""","""","""","""","""","""","""","""","2021-08-13 22:30:13",189.218.23.19,"Mozilla/5.0 (Macintosh; Intel Mac OS X 10_15_7) AppleWebKit/537.36 (KHTML, like Gecko) Chrome/92.0.4515.131 Safari/537.36",Macintosh,Chrome,92.0.4515.131,"OS X",10_15_7,5f461dd6c139dd6b46c7596cbd57cd79
210,1,"""","""","""","""","""",sampler,43,400705,0.0-6.0-37.0,"""","""","""","""","""","""","""","""","""","""","""","""","2021-08-13 22:30:13",189.218.23.19,"Mozilla/5.0 (Macintosh; Intel Mac OS X 10_15_7) AppleWebKit/537.36 (KHTML, like Gecko) Chrome/92.0.4515.131 Safari/537.36",Macintosh,Chrome,92.0.4515.131,"OS X",10_15_7,5f461dd6c139dd6b46c7596cbd57cd79
210,1,"""","""","""","""","""",sampler,44,400705,0.0-6.0-38.0,"""","""","""","""","""","""","""","""","""","""","""","""","2021-08-13 22:30:13",189.218.23.19,"Mozilla/5.0 (Macintosh; Intel Mac OS X 10_15_7) AppleWebKit/537.36 (KHTML, like Gecko) Chrome/92.0.4515.131 Safari/537.36",Macintosh,Chrome,92.0.4515.131,"OS X",10_15_7,5f461dd6c139dd6b46c7596cbd57cd79
210,1,"""","""","""","""","""",sampler,45,400705,0.0-6.0-39.0,"""","""","""","""","""","""","""","""","""","""","""","""","2021-08-13 22:30:13",189.218.23.19,"Mozilla/5.0 (Macintosh; Intel Mac OS X 10_15_7) AppleWebKit/537.36 (KHTML, like Gecko) Chrome/92.0.4515.131 Safari/537.36",Macintosh,Chrome,92.0.4515.131,"OS X",10_15_7,5f461dd6c139dd6b46c7596cbd57cd79
210,1,"""","""","""","""","""",sampler,46,400705,0.0-6.0-40.0,"""","""","""","""","""","""","""","""","""","""","""","""","2021-08-13 22:30:13",189.218.23.19,"Mozilla/5.0 (Macintosh; Intel Mac OS X 10_15_7) AppleWebKit/537.36 (KHTML, like Gecko) Chrome/92.0.4515.131 Safari/537.36",Macintosh,Chrome,92.0.4515.131,"OS X",10_15_7,5f461dd6c139dd6b46c7596cbd57cd79
210,1,"""","""","""","""","""",sampler,47,400706,0.0-6.0-41.0,"""","""","""","""","""","""","""","""","""","""","""","""","2021-08-13 22:30:13",189.218.23.19,"Mozilla/5.0 (Macintosh; Intel Mac OS X 10_15_7) AppleWebKit/537.36 (KHTML, like Gecko) Chrome/92.0.4515.131 Safari/537.36",Macintosh,Chrome,92.0.4515.131,"OS X",10_15_7,5f461dd6c139dd6b46c7596cbd57cd79
210,1,"""","""","""","""","""",sampler,48,400706,0.0-6.0-42.0,"""","""","""","""","""","""","""","""","""","""","""","""","2021-08-13 22:30:13",189.218.23.19,"Mozilla/5.0 (Macintosh; Intel Mac OS X 10_15_7) AppleWebKit/537.36 (KHTML, like Gecko) Chrome/92.0.4515.131 Safari/537.36",Macintosh,Chrome,92.0.4515.131,"OS X",10_15_7,5f461dd6c139dd6b46c7596cbd57cd79
210,1,"""","""","""","""","""",sampler,49,400706,0.0-6.0-43.0,"""","""","""","""","""","""","""","""","""","""","""","""","2021-08-13 22:30:13",189.218.23.19,"Mozilla/5.0 (Macintosh; Intel Mac OS X 10_15_7) AppleWebKit/537.36 (KHTML, like Gecko) Chrome/92.0.4515.131 Safari/537.36",Macintosh,Chrome,92.0.4515.131,"OS X",10_15_7,5f461dd6c139dd6b46c7596cbd57cd79
210,1,"""","""","""","""","""",sampler,50,400706,0.0-6.0-44.0,"""","""","""","""","""","""","""","""","""","""","""","""","2021-08-13 22:30:13",189.218.23.19,"Mozilla/5.0 (Macintosh; Intel Mac OS X 10_15_7) AppleWebKit/537.36 (KHTML, like Gecko) Chrome/92.0.4515.131 Safari/537.36",Macintosh,Chrome,92.0.4515.131,"OS X",10_15_7,5f461dd6c139dd6b46c7596cbd57cd79
210,1,"""","""","""","""","""",sampler,51,400706,0.0-6.0-45.0,"""","""","""","""","""","""","""","""","""","""","""","""","2021-08-13 22:30:13",189.218.23.19,"Mozilla/5.0 (Macintosh; Intel Mac OS X 10_15_7) AppleWebKit/537.36 (KHTML, like Gecko) Chrome/92.0.4515.131 Safari/537.36",Macintosh,Chrome,92.0.4515.131,"OS X",10_15_7,5f461dd6c139dd6b46c7596cbd57cd79
210,1,"""","""","""","""","""",sampler,52,400707,0.0-6.0-46.0,"""","""","""","""","""","""","""","""","""","""","""","""","2021-08-13 22:30:13",189.218.23.19,"Mozilla/5.0 (Macintosh; Intel Mac OS X 10_15_7) AppleWebKit/537.36 (KHTML, like Gecko) Chrome/92.0.4515.131 Safari/537.36",Macintosh,Chrome,92.0.4515.131,"OS X",10_15_7,5f461dd6c139dd6b46c7596cbd57cd79
210,1,"""","""","""","""","""",sampler,53,400707,0.0-6.0-47.0,"""","""","""","""","""","""","""","""","""","""","""","""","2021-08-13 22:30:13",189.218.23.19,"Mozilla/5.0 (Macintosh; Intel Mac OS X 10_15_7) AppleWebKit/537.36 (KHTML, like Gecko) Chrome/92.0.4515.131 Safari/537.36",Macintosh,Chrome,92.0.4515.131,"OS X",10_15_7,5f461dd6c139dd6b46c7596cbd57cd79
210,1,"""","""","""","""","""",sampler,54,400707,0.0-6.0-48.0,"""","""","""","""","""","""","""","""","""","""","""","""","2021-08-13 22:30:13",189.218.23.19,"Mozilla/5.0 (Macintosh; Intel Mac OS X 10_15_7) AppleWebKit/537.36 (KHTML, like Gecko) Chrome/92.0.4515.131 Safari/537.36",Macintosh,Chrome,92.0.4515.131,"OS X",10_15_7,5f461dd6c139dd6b46c7596cbd57cd79
210,1,"""","""","""","""","""",sampler,55,400707,0.0-6.0-49.0,"""","""","""","""","""","""","""","""","""","""","""","""","2021-08-13 22:30:13",189.218.23.19,"Mozilla/5.0 (Macintosh; Intel Mac OS X 10_15_7) AppleWebKit/537.36 (KHTML, like Gecko) Chrome/92.0.4515.131 Safari/537.36",Macintosh,Chrome,92.0.4515.131,"OS X",10_15_7,5f461dd6c139dd6b46c7596cbd57cd79
210,1,"""","""","""","""","""",sampler,56,400707,0.0-6.0-50.0,"""","""","""","""","""","""","""","""","""","""","""","""","2021-08-13 22:30:13",189.218.23.19,"Mozilla/5.0 (Macintosh; Intel Mac OS X 10_15_7) AppleWebKit/537.36 (KHTML, like Gecko) Chrome/92.0.4515.131 Safari/537.36",Macintosh,Chrome,92.0.4515.131,"OS X",10_15_7,5f461dd6c139dd6b46c7596cbd57cd79
210,1,"""","""","""","""","""",sampler,57,400708,0.0-6.0-51.0,"""","""","""","""","""","""","""","""","""","""","""","""","2021-08-13 22:30:13",189.218.23.19,"Mozilla/5.0 (Macintosh; Intel Mac OS X 10_15_7) AppleWebKit/537.36 (KHTML, like Gecko) Chrome/92.0.4515.131 Safari/537.36",Macintosh,Chrome,92.0.4515.131,"OS X",10_15_7,5f461dd6c139dd6b46c7596cbd57cd79
210,1,"""","""","""","""","""",sampler,58,400708,0.0-6.0-52.0,"""","""","""","""","""","""","""","""","""","""","""","""","2021-08-13 22:30:13",189.218.23.19,"Mozilla/5.0 (Macintosh; Intel Mac OS X 10_15_7) AppleWebKit/537.36 (KHTML, like Gecko) Chrome/92.0.4515.131 Safari/537.36",Macintosh,Chrome,92.0.4515.131,"OS X",10_15_7,5f461dd6c139dd6b46c7596cbd57cd79
210,1,"""","""","""","""","""",sampler,59,400708,0.0-6.0-53.0,"""","""","""","""","""","""","""","""","""","""","""","""","2021-08-13 22:30:13",189.218.23.19,"Mozilla/5.0 (Macintosh; Intel Mac OS X 10_15_7) AppleWebKit/537.36 (KHTML, like Gecko) Chrome/92.0.4515.131 Safari/537.36",Macintosh,Chrome,92.0.4515.131,"OS X",10_15_7,5f461dd6c139dd6b46c7596cbd57cd79
210,1,"""","""","""","""","""",sampler,60,400708,0.0-6.0-54.0,"""","""","""","""","""","""","""","""","""","""","""","""","2021-08-13 22:30:13",189.218.23.19,"Mozilla/5.0 (Macintosh; Intel Mac OS X 10_15_7) AppleWebKit/537.36 (KHTML, like Gecko) Chrome/92.0.4515.131 Safari/537.36",Macintosh,Chrome,92.0.4515.131,"OS X",10_15_7,5f461dd6c139dd6b46c7596cbd57cd79
210,1,"""","""","""","""","""",sampler,61,400708,0.0-6.0-55.0,"""","""","""","""","""","""","""","""","""","""","""","""","2021-08-13 22:30:13",189.218.23.19,"Mozilla/5.0 (Macintosh; Intel Mac OS X 10_15_7) AppleWebKit/537.36 (KHTML, like Gecko) Chrome/92.0.4515.131 Safari/537.36",Macintosh,Chrome,92.0.4515.131,"OS X",10_15_7,5f461dd6c139dd6b46c7596cbd57cd79
210,1,"""","""","""","""","""",sampler,62,400709,0.0-6.0-56.0,"""","""","""","""","""","""","""","""","""","""","""","""","2021-08-13 22:30:13",189.218.23.19,"Mozilla/5.0 (Macintosh; Intel Mac OS X 10_15_7) AppleWebKit/537.36 (KHTML, like Gecko) Chrome/92.0.4515.131 Safari/537.36",Macintosh,Chrome,92.0.4515.131,"OS X",10_15_7,5f461dd6c139dd6b46c7596cbd57cd79
210,1,"""","""","""","""","""",sampler,63,400709,0.0-6.0-57.0,"""","""","""","""","""","""","""","""","""","""","""","""","2021-08-13 22:30:13",189.218.23.19,"Mozilla/5.0 (Macintosh; Intel Mac OS X 10_15_7) AppleWebKit/537.36 (KHTML, like Gecko) Chrome/92.0.4515.131 Safari/537.36",Macintosh,Chrome,92.0.4515.131,"OS X",10_15_7,5f461dd6c139dd6b46c7596cbd57cd79
210,1,"""","""","""","""","""",sampler,64,400709,0.0-6.0-58.0,"""","""","""","""","""","""","""","""","""","""","""","""","2021-08-13 22:30:13",189.218.23.19,"Mozilla/5.0 (Macintosh; Intel Mac OS X 10_15_7) AppleWebKit/537.36 (KHTML, like Gecko) Chrome/92.0.4515.131 Safari/537.36",Macintosh,Chrome,92.0.4515.131,"OS X",10_15_7,5f461dd6c139dd6b46c7596cbd57cd79
210,1,"""","""","""","""","""",sampler,65,400709,0.0-6.0-59.0,"""","""","""","""","""","""","""","""","""","""","""","""","2021-08-13 22:30:13",189.218.23.19,"Mozilla/5.0 (Macintosh; Intel Mac OS X 10_15_7) AppleWebKit/537.36 (KHTML, like Gecko) Chrome/92.0.4515.131 Safari/537.36",Macintosh,Chrome,92.0.4515.131,"OS X",10_15_7,5f461dd6c139dd6b46c7596cbd57cd79
210,1,"""","""","""","""","""",sampler,66,400709,0.0-6.0-60.0,"""","""","""","""","""","""","""","""","""","""","""","""","2021-08-13 22:30:13",189.218.23.19,"Mozilla/5.0 (Macintosh; Intel Mac OS X 10_15_7) AppleWebKit/537.36 (KHTML, like Gecko) Chrome/92.0.4515.131 Safari/537.36",Macintosh,Chrome,92.0.4515.131,"OS X",10_15_7,5f461dd6c139dd6b46c7596cbd57cd79
210,1,"""","""","""","""","""",sampler,67,400710,0.0-6.0-61.0,"""","""","""","""","""","""","""","""","""","""","""","""","2021-08-13 22:30:13",189.218.23.19,"Mozilla/5.0 (Macintosh; Intel Mac OS X 10_15_7) AppleWebKit/537.36 (KHTML, like Gecko) Chrome/92.0.4515.131 Safari/537.36",Macintosh,Chrome,92.0.4515.131,"OS X",10_15_7,5f461dd6c139dd6b46c7596cbd57cd79
210,1,"""","""","""","""","""",sampler,68,400710,0.0-6.0-62.0,"""","""","""","""","""","""","""","""","""","""","""","""","2021-08-13 22:30:13",189.218.23.19,"Mozilla/5.0 (Macintosh; Intel Mac OS X 10_15_7) AppleWebKit/537.36 (KHTML, like Gecko) Chrome/92.0.4515.131 Safari/537.36",Macintosh,Chrome,92.0.4515.131,"OS X",10_15_7,5f461dd6c139dd6b46c7596cbd57cd79
210,1,"""","""","""","""","""",sampler,69,400710,0.0-6.0-63.0,"""","""","""","""","""","""","""","""","""","""","""","""","2021-08-13 22:30:13",189.218.23.19,"Mozilla/5.0 (Macintosh; Intel Mac OS X 10_15_7) AppleWebKit/537.36 (KHTML, like Gecko) Chrome/92.0.4515.131 Safari/537.36",Macintosh,Chrome,92.0.4515.131,"OS X",10_15_7,5f461dd6c139dd6b46c7596cbd57cd79
210,1,"""","""","""","""","""",sampler,70,400713,0.0-6.0-64.0,"""","""","""","""","""","""","""","""","""","""","""","""","2021-08-13 22:30:13",189.218.23.19,"Mozilla/5.0 (Macintosh; Intel Mac OS X 10_15_7) AppleWebKit/537.36 (KHTML, like Gecko) Chrome/92.0.4515.131 Safari/537.36",Macintosh,Chrome,92.0.4515.131,"OS X",10_15_7,5f461dd6c139dd6b46c7596cbd57cd79
210,1,"""","""","""","""","""",sampler,71,400714,0.0-6.0-65.0,"""","""","""","""","""","""","""","""","""","""","""","""","2021-08-13 22:30:13",189.218.23.19,"Mozilla/5.0 (Macintosh; Intel Mac OS X 10_15_7) AppleWebKit/537.36 (KHTML, like Gecko) Chrome/92.0.4515.131 Safari/537.36",Macintosh,Chrome,92.0.4515.131,"OS X",10_15_7,5f461dd6c139dd6b46c7596cbd57cd79
210,1,"""","""","""","""","""",sampler,72,400714,0.0-6.0-66.0,"""","""","""","""","""","""","""","""","""","""","""","""","2021-08-13 22:30:13",189.218.23.19,"Mozilla/5.0 (Macintosh; Intel Mac OS X 10_15_7) AppleWebKit/537.36 (KHTML, like Gecko) Chrome/92.0.4515.131 Safari/537.36",Macintosh,Chrome,92.0.4515.131,"OS X",10_15_7,5f461dd6c139dd6b46c7596cbd57cd79
210,1,"""","""","""","""","""",sampler,73,400714,0.0-6.0-67.0,"""","""","""","""","""","""","""","""","""","""","""","""","2021-08-13 22:30:13",189.218.23.19,"Mozilla/5.0 (Macintosh; Intel Mac OS X 10_15_7) AppleWebKit/537.36 (KHTML, like Gecko) Chrome/92.0.4515.131 Safari/537.36",Macintosh,Chrome,92.0.4515.131,"OS X",10_15_7,5f461dd6c139dd6b46c7596cbd57cd79
210,1,"""","""","""","""","""",sampler,74,400714,0.0-6.0-68.0,"""","""","""","""","""","""","""","""","""","""","""","""","2021-08-13 22:30:13",189.218.23.19,"Mozilla/5.0 (Macintosh; Intel Mac OS X 10_15_7) AppleWebKit/537.36 (KHTML, like Gecko) Chrome/92.0.4515.131 Safari/537.36",Macintosh,Chrome,92.0.4515.131,"OS X",10_15_7,5f461dd6c139dd6b46c7596cbd57cd79
210,1,"""","""","""","""","""",sampler,75,400714,0.0-6.0-69.0,"""","""","""","""","""","""","""","""","""","""","""","""","2021-08-13 22:30:13",189.218.23.19,"Mozilla/5.0 (Macintosh; Intel Mac OS X 10_15_7) AppleWebKit/537.36 (KHTML, like Gecko) Chrome/92.0.4515.131 Safari/537.36",Macintosh,Chrome,92.0.4515.131,"OS X",10_15_7,5f461dd6c139dd6b46c7596cbd57cd79
210,1,"""","""","""","""","""",sampler,76,400715,0.0-6.0-70.0,"""","""","""","""","""","""","""","""","""","""","""","""","2021-08-13 22:30:13",189.218.23.19,"Mozilla/5.0 (Macintosh; Intel Mac OS X 10_15_7) AppleWebKit/537.36 (KHTML, like Gecko) Chrome/92.0.4515.131 Safari/537.36",Macintosh,Chrome,92.0.4515.131,"OS X",10_15_7,5f461dd6c139dd6b46c7596cbd57cd79
210,1,"""","""","""","""","""",sampler,77,400715,0.0-6.0-71.0,"""","""","""","""","""","""","""","""","""","""","""","""","2021-08-13 22:30:13",189.218.23.19,"Mozilla/5.0 (Macintosh; Intel Mac OS X 10_15_7) AppleWebKit/537.36 (KHTML, like Gecko) Chrome/92.0.4515.131 Safari/537.36",Macintosh,Chrome,92.0.4515.131,"OS X",10_15_7,5f461dd6c139dd6b46c7596cbd57cd79
210,1,"""","""","""","""","""",sampler,78,400715,0.0-6.0-72.0,"""","""","""","""","""","""","""","""","""","""","""","""","2021-08-13 22:30:13",189.218.23.19,"Mozilla/5.0 (Macintosh; Intel Mac OS X 10_15_7) AppleWebKit/537.36 (KHTML, like Gecko) Chrome/92.0.4515.131 Safari/537.36",Macintosh,Chrome,92.0.4515.131,"OS X",10_15_7,5f461dd6c139dd6b46c7596cbd57cd79
210,1,"""","""","""","""","""",sampler,79,400715,0.0-6.0-73.0,"""","""","""","""","""","""","""","""","""","""","""","""","2021-08-13 22:30:13",189.218.23.19,"Mozilla/5.0 (Macintosh; Intel Mac OS X 10_15_7) AppleWebKit/537.36 (KHTML, like Gecko) Chrome/92.0.4515.131 Safari/537.36",Macintosh,Chrome,92.0.4515.131,"OS X",10_15_7,5f461dd6c139dd6b46c7596cbd57cd79
210,1,"""","""","""","""","""",sampler,80,400716,0.0-6.0-74.0,"""","""","""","""","""","""","""","""","""","""","""","""","2021-08-13 22:30:13",189.218.23.19,"Mozilla/5.0 (Macintosh; Intel Mac OS X 10_15_7) AppleWebKit/537.36 (KHTML, like Gecko) Chrome/92.0.4515.131 Safari/537.36",Macintosh,Chrome,92.0.4515.131,"OS X",10_15_7,5f461dd6c139dd6b46c7596cbd57cd79
210,1,"""","""","""","""","""",sampler,81,400716,0.0-6.0-75.0,"""","""","""","""","""","""","""","""","""","""","""","""","2021-08-13 22:30:13",189.218.23.19,"Mozilla/5.0 (Macintosh; Intel Mac OS X 10_15_7) AppleWebKit/537.36 (KHTML, like Gecko) Chrome/92.0.4515.131 Safari/537.36",Macintosh,Chrome,92.0.4515.131,"OS X",10_15_7,5f461dd6c139dd6b46c7596cbd57cd79
210,1,"""","""","""","""","""",sampler,82,400716,0.0-6.0-76.0,"""","""","""","""","""","""","""","""","""","""","""","""","2021-08-13 22:30:13",189.218.23.19,"Mozilla/5.0 (Macintosh; Intel Mac OS X 10_15_7) AppleWebKit/537.36 (KHTML, like Gecko) Chrome/92.0.4515.131 Safari/537.36",Macintosh,Chrome,92.0.4515.131,"OS X",10_15_7,5f461dd6c139dd6b46c7596cbd57cd79
210,1,"""","""","""","""","""",sampler,83,400716,0.0-6.0-77.0,"""","""","""","""","""","""","""","""","""","""","""","""","2021-08-13 22:30:13",189.218.23.19,"Mozilla/5.0 (Macintosh; Intel Mac OS X 10_15_7) AppleWebKit/537.36 (KHTML, like Gecko) Chrome/92.0.4515.131 Safari/537.36",Macintosh,Chrome,92.0.4515.131,"OS X",10_15_7,5f461dd6c139dd6b46c7596cbd57cd79
210,1,"""","""","""","""","""",sampler,84,400716,0.0-6.0-78.0,"""","""","""","""","""","""","""","""","""","""","""","""","2021-08-13 22:30:13",189.218.23.19,"Mozilla/5.0 (Macintosh; Intel Mac OS X 10_15_7) AppleWebKit/537.36 (KHTML, like Gecko) Chrome/92.0.4515.131 Safari/537.36",Macintosh,Chrome,92.0.4515.131,"OS X",10_15_7,5f461dd6c139dd6b46c7596cbd57cd79
210,1,"""","""","""","""","""",sampler,85,400717,0.0-6.0-79.0,"""","""","""","""","""","""","""","""","""","""","""","""","2021-08-13 22:30:13",189.218.23.19,"Mozilla/5.0 (Macintosh; Intel Mac OS X 10_15_7) AppleWebKit/537.36 (KHTML, like Gecko) Chrome/92.0.4515.131 Safari/537.36",Macintosh,Chrome,92.0.4515.131,"OS X",10_15_7,5f461dd6c139dd6b46c7596cbd57cd79
210,1,"""","""","""","""","""",sampler,86,400717,0.0-6.0-80.0,"""","""","""","""","""","""","""","""","""","""","""","""","2021-08-13 22:30:13",189.218.23.19,"Mozilla/5.0 (Macintosh; Intel Mac OS X 10_15_7) AppleWebKit/537.36 (KHTML, like Gecko) Chrome/92.0.4515.131 Safari/537.36",Macintosh,Chrome,92.0.4515.131,"OS X",10_15_7,5f461dd6c139dd6b46c7596cbd57cd79
210,1,"""","""","""","""","""",sampler,87,400717,0.0-6.0-81.0,"""","""","""","""","""","""","""","""","""","""","""","""","2021-08-13 22:30:13",189.218.23.19,"Mozilla/5.0 (Macintosh; Intel Mac OS X 10_15_7) AppleWebKit/537.36 (KHTML, like Gecko) Chrome/92.0.4515.131 Safari/537.36",Macintosh,Chrome,92.0.4515.131,"OS X",10_15_7,5f461dd6c139dd6b46c7596cbd57cd79
210,1,"""","""","""","""","""",sampler,88,400717,0.0-6.0-82.0,"""","""","""","""","""","""","""","""","""","""","""","""","2021-08-13 22:30:13",189.218.23.19,"Mozilla/5.0 (Macintosh; Intel Mac OS X 10_15_7) AppleWebKit/537.36 (KHTML, like Gecko) Chrome/92.0.4515.131 Safari/537.36",Macintosh,Chrome,92.0.4515.131,"OS X",10_15_7,5f461dd6c139dd6b46c7596cbd57cd79
210,1,"""","""","""","""","""",sampler,89,400717,0.0-6.0-83.0,"""","""","""","""","""","""","""","""","""","""","""","""","2021-08-13 22:30:13",189.218.23.19,"Mozilla/5.0 (Macintosh; Intel Mac OS X 10_15_7) AppleWebKit/537.36 (KHTML, like Gecko) Chrome/92.0.4515.131 Safari/537.36",Macintosh,Chrome,92.0.4515.131,"OS X",10_15_7,5f461dd6c139dd6b46c7596cbd57cd79
210,1,"""","""","""","""","""",sampler,90,400717,0.0-6.0-84.0,"""","""","""","""","""","""","""","""","""","""","""","""","2021-08-13 22:30:13",189.218.23.19,"Mozilla/5.0 (Macintosh; Intel Mac OS X 10_15_7) AppleWebKit/537.36 (KHTML, like Gecko) Chrome/92.0.4515.131 Safari/537.36",Macintosh,Chrome,92.0.4515.131,"OS X",10_15_7,5f461dd6c139dd6b46c7596cbd57cd79
210,1,"""","""","""","""","""",sampler,91,400718,0.0-6.0-85.0,"""","""","""","""","""","""","""","""","""","""","""","""","2021-08-13 22:30:13",189.218.23.19,"Mozilla/5.0 (Macintosh; Intel Mac OS X 10_15_7) AppleWebKit/537.36 (KHTML, like Gecko) Chrome/92.0.4515.131 Safari/537.36",Macintosh,Chrome,92.0.4515.131,"OS X",10_15_7,5f461dd6c139dd6b46c7596cbd57cd79
210,1,"""","""","""","""","""",sampler,92,400718,0.0-6.0-86.0,"""","""","""","""","""","""","""","""","""","""","""","""","2021-08-13 22:30:13",189.218.23.19,"Mozilla/5.0 (Macintosh; Intel Mac OS X 10_15_7) AppleWebKit/537.36 (KHTML, like Gecko) Chrome/92.0.4515.131 Safari/537.36",Macintosh,Chrome,92.0.4515.131,"OS X",10_15_7,5f461dd6c139dd6b46c7596cbd57cd79
210,1,"""","""","""","""","""",sampler,93,400718,0.0-6.0-87.0,"""","""","""","""","""","""","""","""","""","""","""","""","2021-08-13 22:30:13",189.218.23.19,"Mozilla/5.0 (Macintosh; Intel Mac OS X 10_15_7) AppleWebKit/537.36 (KHTML, like Gecko) Chrome/92.0.4515.131 Safari/537.36",Macintosh,Chrome,92.0.4515.131,"OS X",10_15_7,5f461dd6c139dd6b46c7596cbd57cd79
210,1,"""","""","""","""","""",sampler,94,400718,0.0-6.0-88.0,"""","""","""","""","""","""","""","""","""","""","""","""","2021-08-13 22:30:13",189.218.23.19,"Mozilla/5.0 (Macintosh; Intel Mac OS X 10_15_7) AppleWebKit/537.36 (KHTML, like Gecko) Chrome/92.0.4515.131 Safari/537.36",Macintosh,Chrome,92.0.4515.131,"OS X",10_15_7,5f461dd6c139dd6b46c7596cbd57cd79
210,1,"""","""","""","""","""",sampler,95,400718,0.0-6.0-89.0,"""","""","""","""","""","""","""","""","""","""","""","""","2021-08-13 22:30:13",189.218.23.19,"Mozilla/5.0 (Macintosh; Intel Mac OS X 10_15_7) AppleWebKit/537.36 (KHTML, like Gecko) Chrome/92.0.4515.131 Safari/537.36",Macintosh,Chrome,92.0.4515.131,"OS X",10_15_7,5f461dd6c139dd6b46c7596cbd57cd79
210,1,"""","""","""","""","""",sampler,96,400722,0.0-6.0-90.0,"""","""","""","""","""","""","""","""","""","""","""","""","2021-08-13 22:30:13",189.218.23.19,"Mozilla/5.0 (Macintosh; Intel Mac OS X 10_15_7) AppleWebKit/537.36 (KHTML, like Gecko) Chrome/92.0.4515.131 Safari/537.36",Macintosh,Chrome,92.0.4515.131,"OS X",10_15_7,5f461dd6c139dd6b46c7596cbd57cd79
210,1,"""","""","""","""","""",sampler,97,400722,0.0-6.0-91.0,"""","""","""","""","""","""","""","""","""","""","""","""","2021-08-13 22:30:13",189.218.23.19,"Mozilla/5.0 (Macintosh; Intel Mac OS X 10_15_7) AppleWebKit/537.36 (KHTML, like Gecko) Chrome/92.0.4515.131 Safari/537.36",Macintosh,Chrome,92.0.4515.131,"OS X",10_15_7,5f461dd6c139dd6b46c7596cbd57cd79
210,1,"""","""","""","""","""",sampler,98,400722,0.0-6.0-92.0,"""","""","""","""","""","""","""","""","""","""","""","""","2021-08-13 22:30:13",189.218.23.19,"Mozilla/5.0 (Macintosh; Intel Mac OS X 10_15_7) AppleWebKit/537.36 (KHTML, like Gecko) Chrome/92.0.4515.131 Safari/537.36",Macintosh,Chrome,92.0.4515.131,"OS X",10_15_7,5f461dd6c139dd6b46c7596cbd57cd79
210,1,"""","""","""","""","""",sampler,99,400722,0.0-6.0-93.0,"""","""","""","""","""","""","""","""","""","""","""","""","2021-08-13 22:30:13",189.218.23.19,"Mozilla/5.0 (Macintosh; Intel Mac OS X 10_15_7) AppleWebKit/537.36 (KHTML, like Gecko) Chrome/92.0.4515.131 Safari/537.36",Macintosh,Chrome,92.0.4515.131,"OS X",10_15_7,5f461dd6c139dd6b46c7596cbd57cd79
210,1,"""","""","""","""","""",sampler,100,400723,0.0-6.0-94.0,"""","""","""","""","""","""","""","""","""","""","""","""","2021-08-13 22:30:13",189.218.23.19,"Mozilla/5.0 (Macintosh; Intel Mac OS X 10_15_7) AppleWebKit/537.36 (KHTML, like Gecko) Chrome/92.0.4515.131 Safari/537.36",Macintosh,Chrome,92.0.4515.131,"OS X",10_15_7,5f461dd6c139dd6b46c7596cbd57cd79
210,1,"""","""","""","""","""",sampler,101,400723,0.0-6.0-95.0,"""","""","""","""","""","""","""","""","""","""","""","""","2021-08-13 22:30:13",189.218.23.19,"Mozilla/5.0 (Macintosh; Intel Mac OS X 10_15_7) AppleWebKit/537.36 (KHTML, like Gecko) Chrome/92.0.4515.131 Safari/537.36",Macintosh,Chrome,92.0.4515.131,"OS X",10_15_7,5f461dd6c139dd6b46c7596cbd57cd79
210,1,"""","""","""","""","""",sampler,102,400723,0.0-6.0-96.0,"""","""","""","""","""","""","""","""","""","""","""","""","2021-08-13 22:30:13",189.218.23.19,"Mozilla/5.0 (Macintosh; Intel Mac OS X 10_15_7) AppleWebKit/537.36 (KHTML, like Gecko) Chrome/92.0.4515.131 Safari/537.36",Macintosh,Chrome,92.0.4515.131,"OS X",10_15_7,5f461dd6c139dd6b46c7596cbd57cd79
210,1,"""","""","""","""","""",sampler,103,400723,0.0-6.0-97.0,"""","""","""","""","""","""","""","""","""","""","""","""","2021-08-13 22:30:13",189.218.23.19,"Mozilla/5.0 (Macintosh; Intel Mac OS X 10_15_7) AppleWebKit/537.36 (KHTML, like Gecko) Chrome/92.0.4515.131 Safari/537.36",Macintosh,Chrome,92.0.4515.131,"OS X",10_15_7,5f461dd6c139dd6b46c7596cbd57cd79
210,1,"""","""","""","""","""",sampler,104,400723,0.0-6.0-98.0,"""","""","""","""","""","""","""","""","""","""","""","""","2021-08-13 22:30:13",189.218.23.19,"Mozilla/5.0 (Macintosh; Intel Mac OS X 10_15_7) AppleWebKit/537.36 (KHTML, like Gecko) Chrome/92.0.4515.131 Safari/537.36",Macintosh,Chrome,92.0.4515.131,"OS X",10_15_7,5f461dd6c139dd6b46c7596cbd57cd79
210,1,"""","""","""","""","""",sampler,105,400724,0.0-6.0-99.0,"""","""","""","""","""","""","""","""","""","""","""","""","2021-08-13 22:30:13",189.218.23.19,"Mozilla/5.0 (Macintosh; Intel Mac OS X 10_15_7) AppleWebKit/537.36 (KHTML, like Gecko) Chrome/92.0.4515.131 Safari/537.36",Macintosh,Chrome,92.0.4515.131,"OS X",10_15_7,5f461dd6c139dd6b46c7596cbd57cd79
210,1,"""","""","""","""","""",sampler,106,400724,0.0-6.0-100.0,"""","""","""","""","""","""","""","""","""","""","""","""","2021-08-13 22:30:13",189.218.23.19,"Mozilla/5.0 (Macintosh; Intel Mac OS X 10_15_7) AppleWebKit/537.36 (KHTML, like Gecko) Chrome/92.0.4515.131 Safari/537.36",Macintosh,Chrome,92.0.4515.131,"OS X",10_15_7,5f461dd6c139dd6b46c7596cbd57cd79
210,1,"""","""","""","""","""",sampler,107,400724,0.0-6.0-101.0,"""","""","""","""","""","""","""","""","""","""","""","""","2021-08-13 22:30:13",189.218.23.19,"Mozilla/5.0 (Macintosh; Intel Mac OS X 10_15_7) AppleWebKit/537.36 (KHTML, like Gecko) Chrome/92.0.4515.131 Safari/537.36",Macintosh,Chrome,92.0.4515.131,"OS X",10_15_7,5f461dd6c139dd6b46c7596cbd57cd79
210,1,"""","""","""","""","""",sampler,108,400724,0.0-6.0-102.0,"""","""","""","""","""","""","""","""","""","""","""","""","2021-08-13 22:30:13",189.218.23.19,"Mozilla/5.0 (Macintosh; Intel Mac OS X 10_15_7) AppleWebKit/537.36 (KHTML, like Gecko) Chrome/92.0.4515.131 Safari/537.36",Macintosh,Chrome,92.0.4515.131,"OS X",10_15_7,5f461dd6c139dd6b46c7596cbd57cd79
210,1,"""","""","""","""","""",sampler,109,400724,0.0-6.0-103.0,"""","""","""","""","""","""","""","""","""","""","""","""","2021-08-13 22:30:13",189.218.23.19,"Mozilla/5.0 (Macintosh; Intel Mac OS X 10_15_7) AppleWebKit/537.36 (KHTML, like Gecko) Chrome/92.0.4515.131 Safari/537.36",Macintosh,Chrome,92.0.4515.131,"OS X",10_15_7,5f461dd6c139dd6b46c7596cbd57cd79
210,1,"""","""","""","""","""",sampler,110,400724,0.0-6.0-104.0,"""","""","""","""","""","""","""","""","""","""","""","""","2021-08-13 22:30:13",189.218.23.19,"Mozilla/5.0 (Macintosh; Intel Mac OS X 10_15_7) AppleWebKit/537.36 (KHTML, like Gecko) Chrome/92.0.4515.131 Safari/537.36",Macintosh,Chrome,92.0.4515.131,"OS X",10_15_7,5f461dd6c139dd6b46c7596cbd57cd79
210,1,"""","""","""","""","""",sampler,111,400724,0.0-6.0-105.0,"""","""","""","""","""","""","""","""","""","""","""","""","2021-08-13 22:30:13",189.218.23.19,"Mozilla/5.0 (Macintosh; Intel Mac OS X 10_15_7) AppleWebKit/537.36 (KHTML, like Gecko) Chrome/92.0.4515.131 Safari/537.36",Macintosh,Chrome,92.0.4515.131,"OS X",10_15_7,5f461dd6c139dd6b46c7596cbd57cd79
210,1,"""","""","""","""","""",sampler,112,400724,0.0-6.0-106.0,"""","""","""","""","""","""","""","""","""","""","""","""","2021-08-13 22:30:13",189.218.23.19,"Mozilla/5.0 (Macintosh; Intel Mac OS X 10_15_7) AppleWebKit/537.36 (KHTML, like Gecko) Chrome/92.0.4515.131 Safari/537.36",Macintosh,Chrome,92.0.4515.131,"OS X",10_15_7,5f461dd6c139dd6b46c7596cbd57cd79
210,1,"""","""","""","""","""",sampler,113,400725,0.0-6.0-107.0,"""","""","""","""","""","""","""","""","""","""","""","""","2021-08-13 22:30:13",189.218.23.19,"Mozilla/5.0 (Macintosh; Intel Mac OS X 10_15_7) AppleWebKit/537.36 (KHTML, like Gecko) Chrome/92.0.4515.131 Safari/537.36",Macintosh,Chrome,92.0.4515.131,"OS X",10_15_7,5f461dd6c139dd6b46c7596cbd57cd79
210,1,"""","""","""","""","""",sampler,114,400725,0.0-6.0-108.0,"""","""","""","""","""","""","""","""","""","""","""","""","2021-08-13 22:30:13",189.218.23.19,"Mozilla/5.0 (Macintosh; Intel Mac OS X 10_15_7) AppleWebKit/537.36 (KHTML, like Gecko) Chrome/92.0.4515.131 Safari/537.36",Macintosh,Chrome,92.0.4515.131,"OS X",10_15_7,5f461dd6c139dd6b46c7596cbd57cd79
210,1,"""","""","""","""","""",sampler,115,400725,0.0-6.0-109.0,"""","""","""","""","""","""","""","""","""","""","""","""","2021-08-13 22:30:13",189.218.23.19,"Mozilla/5.0 (Macintosh; Intel Mac OS X 10_15_7) AppleWebKit/537.36 (KHTML, like Gecko) Chrome/92.0.4515.131 Safari/537.36",Macintosh,Chrome,92.0.4515.131,"OS X",10_15_7,5f461dd6c139dd6b46c7596cbd57cd79
210,1,"""","""","""","""","""",sampler,116,400725,0.0-6.0-110.0,"""","""","""","""","""","""","""","""","""","""","""","""","2021-08-13 22:30:13",189.218.23.19,"Mozilla/5.0 (Macintosh; Intel Mac OS X 10_15_7) AppleWebKit/537.36 (KHTML, like Gecko) Chrome/92.0.4515.131 Safari/537.36",Macintosh,Chrome,92.0.4515.131,"OS X",10_15_7,5f461dd6c139dd6b46c7596cbd57cd79
210,1,"""","""","""","""","""",sampler,117,400725,0.0-6.0-111.0,"""","""","""","""","""","""","""","""","""","""","""","""","2021-08-13 22:30:13",189.218.23.19,"Mozilla/5.0 (Macintosh; Intel Mac OS X 10_15_7) AppleWebKit/537.36 (KHTML, like Gecko) Chrome/92.0.4515.131 Safari/537.36",Macintosh,Chrome,92.0.4515.131,"OS X",10_15_7,5f461dd6c139dd6b46c7596cbd57cd79
210,1,"""","""","""","""","""",sampler,118,400725,0.0-6.0-112.0,"""","""","""","""","""","""","""","""","""","""","""","""","2021-08-13 22:30:13",189.218.23.19,"Mozilla/5.0 (Macintosh; Intel Mac OS X 10_15_7) AppleWebKit/537.36 (KHTML, like Gecko) Chrome/92.0.4515.131 Safari/537.36",Macintosh,Chrome,92.0.4515.131,"OS X",10_15_7,5f461dd6c139dd6b46c7596cbd57cd79
210,1,"""","""","""","""","""",sampler,119,400725,0.0-6.0-113.0,"""","""","""","""","""","""","""","""","""","""","""","""","2021-08-13 22:30:13",189.218.23.19,"Mozilla/5.0 (Macintosh; Intel Mac OS X 10_15_7) AppleWebKit/537.36 (KHTML, like Gecko) Chrome/92.0.4515.131 Safari/537.36",Macintosh,Chrome,92.0.4515.131,"OS X",10_15_7,5f461dd6c139dd6b46c7596cbd57cd79
210,1,"""","""","""","""","""",sampler,120,400726,0.0-6.0-114.0,"""","""","""","""","""","""","""","""","""","""","""","""","2021-08-13 22:30:13",189.218.23.19,"Mozilla/5.0 (Macintosh; Intel Mac OS X 10_15_7) AppleWebKit/537.36 (KHTML, like Gecko) Chrome/92.0.4515.131 Safari/537.36",Macintosh,Chrome,92.0.4515.131,"OS X",10_15_7,5f461dd6c139dd6b46c7596cbd57cd79
210,1,"""","""","""","""","""",sampler,121,400726,0.0-6.0-115.0,"""","""","""","""","""","""","""","""","""","""","""","""","2021-08-13 22:30:13",189.218.23.19,"Mozilla/5.0 (Macintosh; Intel Mac OS X 10_15_7) AppleWebKit/537.36 (KHTML, like Gecko) Chrome/92.0.4515.131 Safari/537.36",Macintosh,Chrome,92.0.4515.131,"OS X",10_15_7,5f461dd6c139dd6b46c7596cbd57cd79
210,1,"""","""","""","""","""",sampler,122,400726,0.0-6.0-116.0,"""","""","""","""","""","""","""","""","""","""","""","""","2021-08-13 22:30:13",189.218.23.19,"Mozilla/5.0 (Macintosh; Intel Mac OS X 10_15_7) AppleWebKit/537.36 (KHTML, like Gecko) Chrome/92.0.4515.131 Safari/537.36",Macintosh,Chrome,92.0.4515.131,"OS X",10_15_7,5f461dd6c139dd6b46c7596cbd57cd79
210,1,"""","""","""","""","""",sampler,123,400726,0.0-6.0-117.0,"""","""","""","""","""","""","""","""","""","""","""","""","2021-08-13 22:30:13",189.218.23.19,"Mozilla/5.0 (Macintosh; Intel Mac OS X 10_15_7) AppleWebKit/537.36 (KHTML, like Gecko) Chrome/92.0.4515.131 Safari/537.36",Macintosh,Chrome,92.0.4515.131,"OS X",10_15_7,5f461dd6c139dd6b46c7596cbd57cd79
210,1,"""","""","""","""","""",sampler,124,400726,0.0-6.0-118.0,"""","""","""","""","""","""","""","""","""","""","""","""","2021-08-13 22:30:13",189.218.23.19,"Mozilla/5.0 (Macintosh; Intel Mac OS X 10_15_7) AppleWebKit/537.36 (KHTML, like Gecko) Chrome/92.0.4515.131 Safari/537.36",Macintosh,Chrome,92.0.4515.131,"OS X",10_15_7,5f461dd6c139dd6b46c7596cbd57cd79
210,1,"""","""","""","""","""",sampler,125,400726,0.0-6.0-119.0,"""","""","""","""","""","""","""","""","""","""","""","""","2021-08-13 22:30:13",189.218.23.19,"Mozilla/5.0 (Macintosh; Intel Mac OS X 10_15_7) AppleWebKit/537.36 (KHTML, like Gecko) Chrome/92.0.4515.131 Safari/537.36",Macintosh,Chrome,92.0.4515.131,"OS X",10_15_7,5f461dd6c139dd6b46c7596cbd57cd79
210,1,"""","""","""","""","""",sampler,126,400726,0.0-6.0-120.0,"""","""","""","""","""","""","""","""","""","""","""","""","2021-08-13 22:30:13",189.218.23.19,"Mozilla/5.0 (Macintosh; Intel Mac OS X 10_15_7) AppleWebKit/537.36 (KHTML, like Gecko) Chrome/92.0.4515.131 Safari/537.36",Macintosh,Chrome,92.0.4515.131,"OS X",10_15_7,5f461dd6c139dd6b46c7596cbd57cd79
210,1,"""","""","""","""","""",sampler,127,400726,0.0-6.0-121.0,"""","""","""","""","""","""","""","""","""","""","""","""","2021-08-13 22:30:13",189.218.23.19,"Mozilla/5.0 (Macintosh; Intel Mac OS X 10_15_7) AppleWebKit/537.36 (KHTML, like Gecko) Chrome/92.0.4515.131 Safari/537.36",Macintosh,Chrome,92.0.4515.131,"OS X",10_15_7,5f461dd6c139dd6b46c7596cbd57cd79
210,1,"""","""","""","""","""",sampler,128,400727,0.0-6.0-122.0,"""","""","""","""","""","""","""","""","""","""","""","""","2021-08-13 22:30:13",189.218.23.19,"Mozilla/5.0 (Macintosh; Intel Mac OS X 10_15_7) AppleWebKit/537.36 (KHTML, like Gecko) Chrome/92.0.4515.131 Safari/537.36",Macintosh,Chrome,92.0.4515.131,"OS X",10_15_7,5f461dd6c139dd6b46c7596cbd57cd79
210,1,"""","""","""","""","""",sampler,129,400727,0.0-6.0-123.0,"""","""","""","""","""","""","""","""","""","""","""","""","2021-08-13 22:30:13",189.218.23.19,"Mozilla/5.0 (Macintosh; Intel Mac OS X 10_15_7) AppleWebKit/537.36 (KHTML, like Gecko) Chrome/92.0.4515.131 Safari/537.36",Macintosh,Chrome,92.0.4515.131,"OS X",10_15_7,5f461dd6c139dd6b46c7596cbd57cd79
210,1,"""","""","""","""","""",sampler,130,400727,0.0-6.0-124.0,"""","""","""","""","""","""","""","""","""","""","""","""","2021-08-13 22:30:13",189.218.23.19,"Mozilla/5.0 (Macintosh; Intel Mac OS X 10_15_7) AppleWebKit/537.36 (KHTML, like Gecko) Chrome/92.0.4515.131 Safari/537.36",Macintosh,Chrome,92.0.4515.131,"OS X",10_15_7,5f461dd6c139dd6b46c7596cbd57cd79
210,1,"""","""","""","""","""",sampler,131,400727,0.0-6.0-125.0,"""","""","""","""","""","""","""","""","""","""","""","""","2021-08-13 22:30:13",189.218.23.19,"Mozilla/5.0 (Macintosh; Intel Mac OS X 10_15_7) AppleWebKit/537.36 (KHTML, like Gecko) Chrome/92.0.4515.131 Safari/537.36",Macintosh,Chrome,92.0.4515.131,"OS X",10_15_7,5f461dd6c139dd6b46c7596cbd57cd79
210,1,"""","""","""","""","""",sampler,132,400727,0.0-6.0-126.0,"""","""","""","""","""","""","""","""","""","""","""","""","2021-08-13 22:30:13",189.218.23.19,"Mozilla/5.0 (Macintosh; Intel Mac OS X 10_15_7) AppleWebKit/537.36 (KHTML, like Gecko) Chrome/92.0.4515.131 Safari/537.36",Macintosh,Chrome,92.0.4515.131,"OS X",10_15_7,5f461dd6c139dd6b46c7596cbd57cd79
210,1,"""","""","""","""","""",sampler,133,400727,0.0-6.0-127.0,"""","""","""","""","""","""","""","""","""","""","""","""","2021-08-13 22:30:13",189.218.23.19,"Mozilla/5.0 (Macintosh; Intel Mac OS X 10_15_7) AppleWebKit/537.36 (KHTML, like Gecko) Chrome/92.0.4515.131 Safari/537.36",Macintosh,Chrome,92.0.4515.131,"OS X",10_15_7,5f461dd6c139dd6b46c7596cbd57cd79
210,1,"""","""","""","""","""",sampler,134,400727,0.0-6.0-128.0,"""","""","""","""","""","""","""","""","""","""","""","""","2021-08-13 22:30:13",189.218.23.19,"Mozilla/5.0 (Macintosh; Intel Mac OS X 10_15_7) AppleWebKit/537.36 (KHTML, like Gecko) Chrome/92.0.4515.131 Safari/537.36",Macintosh,Chrome,92.0.4515.131,"OS X",10_15_7,5f461dd6c139dd6b46c7596cbd57cd79
210,1,"""","""","""","""","""",sampler,135,400727,0.0-6.0-129.0,"""","""","""","""","""","""","""","""","""","""","""","""","2021-08-13 22:30:13",189.218.23.19,"Mozilla/5.0 (Macintosh; Intel Mac OS X 10_15_7) AppleWebKit/537.36 (KHTML, like Gecko) Chrome/92.0.4515.131 Safari/537.36",Macintosh,Chrome,92.0.4515.131,"OS X",10_15_7,5f461dd6c139dd6b46c7596cbd57cd79
210,1,"""","""","""","""","""",sampler,136,400727,0.0-6.0-130.0,"""","""","""","""","""","""","""","""","""","""","""","""","2021-08-13 22:30:13",189.218.23.19,"Mozilla/5.0 (Macintosh; Intel Mac OS X 10_15_7) AppleWebKit/537.36 (KHTML, like Gecko) Chrome/92.0.4515.131 Safari/537.36",Macintosh,Chrome,92.0.4515.131,"OS X",10_15_7,5f461dd6c139dd6b46c7596cbd57cd79
210,1,"""","""","""","""","""",sampler,137,400728,0.0-6.0-131.0,"""","""","""","""","""","""","""","""","""","""","""","""","2021-08-13 22:30:13",189.218.23.19,"Mozilla/5.0 (Macintosh; Intel Mac OS X 10_15_7) AppleWebKit/537.36 (KHTML, like Gecko) Chrome/92.0.4515.131 Safari/537.36",Macintosh,Chrome,92.0.4515.131,"OS X",10_15_7,5f461dd6c139dd6b46c7596cbd57cd79
210,1,"""","""","""","""","""",sampler,138,400728,0.0-6.0-132.0,"""","""","""","""","""","""","""","""","""","""","""","""","2021-08-13 22:30:13",189.218.23.19,"Mozilla/5.0 (Macintosh; Intel Mac OS X 10_15_7) AppleWebKit/537.36 (KHTML, like Gecko) Chrome/92.0.4515.131 Safari/537.36",Macintosh,Chrome,92.0.4515.131,"OS X",10_15_7,5f461dd6c139dd6b46c7596cbd57cd79
210,1,"""","""","""","""","""",sampler,139,400728,0.0-6.0-133.0,"""","""","""","""","""","""","""","""","""","""","""","""","2021-08-13 22:30:13",189.218.23.19,"Mozilla/5.0 (Macintosh; Intel Mac OS X 10_15_7) AppleWebKit/537.36 (KHTML, like Gecko) Chrome/92.0.4515.131 Safari/537.36",Macintosh,Chrome,92.0.4515.131,"OS X",10_15_7,5f461dd6c139dd6b46c7596cbd57cd79
210,1,"""","""","""","""","""",sampler,140,400728,0.0-6.0-134.0,"""","""","""","""","""","""","""","""","""","""","""","""","2021-08-13 22:30:13",189.218.23.19,"Mozilla/5.0 (Macintosh; Intel Mac OS X 10_15_7) AppleWebKit/537.36 (KHTML, like Gecko) Chrome/92.0.4515.131 Safari/537.36",Macintosh,Chrome,92.0.4515.131,"OS X",10_15_7,5f461dd6c139dd6b46c7596cbd57cd79
210,1,"""","""","""","""","""",sampler,141,400728,0.0-6.0-135.0,"""","""","""","""","""","""","""","""","""","""","""","""","2021-08-13 22:30:13",189.218.23.19,"Mozilla/5.0 (Macintosh; Intel Mac OS X 10_15_7) AppleWebKit/537.36 (KHTML, like Gecko) Chrome/92.0.4515.131 Safari/537.36",Macintosh,Chrome,92.0.4515.131,"OS X",10_15_7,5f461dd6c139dd6b46c7596cbd57cd79
210,1,"""","""","""","""","""",sampler,142,400728,0.0-6.0-136.0,"""","""","""","""","""","""","""","""","""","""","""","""","2021-08-13 22:30:13",189.218.23.19,"Mozilla/5.0 (Macintosh; Intel Mac OS X 10_15_7) AppleWebKit/537.36 (KHTML, like Gecko) Chrome/92.0.4515.131 Safari/537.36",Macintosh,Chrome,92.0.4515.131,"OS X",10_15_7,5f461dd6c139dd6b46c7596cbd57cd79
210,1,"""","""","""","""","""",sampler,143,400728,0.0-6.0-137.0,"""","""","""","""","""","""","""","""","""","""","""","""","2021-08-13 22:30:13",189.218.23.19,"Mozilla/5.0 (Macintosh; Intel Mac OS X 10_15_7) AppleWebKit/537.36 (KHTML, like Gecko) Chrome/92.0.4515.131 Safari/537.36",Macintosh,Chrome,92.0.4515.131,"OS X",10_15_7,5f461dd6c139dd6b46c7596cbd57cd79
210,1,"""","""","""","""","""",sampler,144,400728,0.0-6.0-138.0,"""","""","""","""","""","""","""","""","""","""","""","""","2021-08-13 22:30:13",189.218.23.19,"Mozilla/5.0 (Macintosh; Intel Mac OS X 10_15_7) AppleWebKit/537.36 (KHTML, like Gecko) Chrome/92.0.4515.131 Safari/537.36",Macintosh,Chrome,92.0.4515.131,"OS X",10_15_7,5f461dd6c139dd6b46c7596cbd57cd79
210,1,"""","""","""","""","""",sampler,145,400728,0.0-6.0-139.0,"""","""","""","""","""","""","""","""","""","""","""","""","2021-08-13 22:30:13",189.218.23.19,"Mozilla/5.0 (Macintosh; Intel Mac OS X 10_15_7) AppleWebKit/537.36 (KHTML, like Gecko) Chrome/92.0.4515.131 Safari/537.36",Macintosh,Chrome,92.0.4515.131,"OS X",10_15_7,5f461dd6c139dd6b46c7596cbd57cd79
210,1,"""","""","""","""","""",sampler,146,400729,0.0-6.0-140.0,"""","""","""","""","""","""","""","""","""","""","""","""","2021-08-13 22:30:13",189.218.23.19,"Mozilla/5.0 (Macintosh; Intel Mac OS X 10_15_7) AppleWebKit/537.36 (KHTML, like Gecko) Chrome/92.0.4515.131 Safari/537.36",Macintosh,Chrome,92.0.4515.131,"OS X",10_15_7,5f461dd6c139dd6b46c7596cbd57cd79
210,1,"""","""","""","""","""",sampler,147,400729,0.0-6.0-141.0,"""","""","""","""","""","""","""","""","""","""","""","""","2021-08-13 22:30:13",189.218.23.19,"Mozilla/5.0 (Macintosh; Intel Mac OS X 10_15_7) AppleWebKit/537.36 (KHTML, like Gecko) Chrome/92.0.4515.131 Safari/537.36",Macintosh,Chrome,92.0.4515.131,"OS X",10_15_7,5f461dd6c139dd6b46c7596cbd57cd79
210,1,"""","""","""","""","""",sampler,148,400729,0.0-6.0-142.0,"""","""","""","""","""","""","""","""","""","""","""","""","2021-08-13 22:30:13",189.218.23.19,"Mozilla/5.0 (Macintosh; Intel Mac OS X 10_15_7) AppleWebKit/537.36 (KHTML, like Gecko) Chrome/92.0.4515.131 Safari/537.36",Macintosh,Chrome,92.0.4515.131,"OS X",10_15_7,5f461dd6c139dd6b46c7596cbd57cd79
210,1,"""","""","""","""","""",sampler,149,400729,0.0-6.0-143.0,"""","""","""","""","""","""","""","""","""","""","""","""","2021-08-13 22:30:13",189.218.23.19,"Mozilla/5.0 (Macintosh; Intel Mac OS X 10_15_7) AppleWebKit/537.36 (KHTML, like Gecko) Chrome/92.0.4515.131 Safari/537.36",Macintosh,Chrome,92.0.4515.131,"OS X",10_15_7,5f461dd6c139dd6b46c7596cbd57cd79
210,1,"""","""","""","""","""",sampler,150,400729,0.0-6.0-144.0,"""","""","""","""","""","""","""","""","""","""","""","""","2021-08-13 22:30:13",189.218.23.19,"Mozilla/5.0 (Macintosh; Intel Mac OS X 10_15_7) AppleWebKit/537.36 (KHTML, like Gecko) Chrome/92.0.4515.131 Safari/537.36",Macintosh,Chrome,92.0.4515.131,"OS X",10_15_7,5f461dd6c139dd6b46c7596cbd57cd79
210,1,"""","""","""","""","""",sampler,151,400729,0.0-6.0-145.0,"""","""","""","""","""","""","""","""","""","""","""","""","2021-08-13 22:30:13",189.218.23.19,"Mozilla/5.0 (Macintosh; Intel Mac OS X 10_15_7) AppleWebKit/537.36 (KHTML, like Gecko) Chrome/92.0.4515.131 Safari/537.36",Macintosh,Chrome,92.0.4515.131,"OS X",10_15_7,5f461dd6c139dd6b46c7596cbd57cd79
210,1,"""","""","""","""","""",sampler,152,400729,0.0-6.0-146.0,"""","""","""","""","""","""","""","""","""","""","""","""","2021-08-13 22:30:13",189.218.23.19,"Mozilla/5.0 (Macintosh; Intel Mac OS X 10_15_7) AppleWebKit/537.36 (KHTML, like Gecko) Chrome/92.0.4515.131 Safari/537.36",Macintosh,Chrome,92.0.4515.131,"OS X",10_15_7,5f461dd6c139dd6b46c7596cbd57cd79
210,1,"""","""","""","""","""",sampler,153,400729,0.0-6.0-147.0,"""","""","""","""","""","""","""","""","""","""","""","""","2021-08-13 22:30:13",189.218.23.19,"Mozilla/5.0 (Macintosh; Intel Mac OS X 10_15_7) AppleWebKit/537.36 (KHTML, like Gecko) Chrome/92.0.4515.131 Safari/537.36",Macintosh,Chrome,92.0.4515.131,"OS X",10_15_7,5f461dd6c139dd6b46c7596cbd57cd79
210,1,"""","""","""","""","""",sampler,154,400729,0.0-6.0-148.0,"""","""","""","""","""","""","""","""","""","""","""","""","2021-08-13 22:30:13",189.218.23.19,"Mozilla/5.0 (Macintosh; Intel Mac OS X 10_15_7) AppleWebKit/537.36 (KHTML, like Gecko) Chrome/92.0.4515.131 Safari/537.36",Macintosh,Chrome,92.0.4515.131,"OS X",10_15_7,5f461dd6c139dd6b46c7596cbd57cd79
210,1,"""","""","""","""","""",sampler,155,400730,0.0-6.0-149.0,"""","""","""","""","""","""","""","""","""","""","""","""","2021-08-13 22:30:13",189.218.23.19,"Mozilla/5.0 (Macintosh; Intel Mac OS X 10_15_7) AppleWebKit/537.36 (KHTML, like Gecko) Chrome/92.0.4515.131 Safari/537.36",Macintosh,Chrome,92.0.4515.131,"OS X",10_15_7,5f461dd6c139dd6b46c7596cbd57cd79
210,1,"""","""","""","""","""",sampler,156,400730,0.0-6.0-150.0,"""","""","""","""","""","""","""","""","""","""","""","""","2021-08-13 22:30:13",189.218.23.19,"Mozilla/5.0 (Macintosh; Intel Mac OS X 10_15_7) AppleWebKit/537.36 (KHTML, like Gecko) Chrome/92.0.4515.131 Safari/537.36",Macintosh,Chrome,92.0.4515.131,"OS X",10_15_7,5f461dd6c139dd6b46c7596cbd57cd79
210,1,"""","""","""","""","""",sampler,157,400730,0.0-6.0-151.0,"""","""","""","""","""","""","""","""","""","""","""","""","2021-08-13 22:30:13",189.218.23.19,"Mozilla/5.0 (Macintosh; Intel Mac OS X 10_15_7) AppleWebKit/537.36 (KHTML, like Gecko) Chrome/92.0.4515.131 Safari/537.36",Macintosh,Chrome,92.0.4515.131,"OS X",10_15_7,5f461dd6c139dd6b46c7596cbd57cd79
210,1,"""","""","""","""","""",sampler,158,400730,0.0-6.0-152.0,"""","""","""","""","""","""","""","""","""","""","""","""","2021-08-13 22:30:13",189.218.23.19,"Mozilla/5.0 (Macintosh; Intel Mac OS X 10_15_7) AppleWebKit/537.36 (KHTML, like Gecko) Chrome/92.0.4515.131 Safari/537.36",Macintosh,Chrome,92.0.4515.131,"OS X",10_15_7,5f461dd6c139dd6b46c7596cbd57cd79
210,1,"""","""","""","""","""",sampler,159,400730,0.0-6.0-153.0,"""","""","""","""","""","""","""","""","""","""","""","""","2021-08-13 22:30:13",189.218.23.19,"Mozilla/5.0 (Macintosh; Intel Mac OS X 10_15_7) AppleWebKit/537.36 (KHTML, like Gecko) Chrome/92.0.4515.131 Safari/537.36",Macintosh,Chrome,92.0.4515.131,"OS X",10_15_7,5f461dd6c139dd6b46c7596cbd57cd79
210,1,"""","""","""","""","""",sampler,160,400730,0.0-6.0-154.0,"""","""","""","""","""","""","""","""","""","""","""","""","2021-08-13 22:30:13",189.218.23.19,"Mozilla/5.0 (Macintosh; Intel Mac OS X 10_15_7) AppleWebKit/537.36 (KHTML, like Gecko) Chrome/92.0.4515.131 Safari/537.36",Macintosh,Chrome,92.0.4515.131,"OS X",10_15_7,5f461dd6c139dd6b46c7596cbd57cd79
210,1,"""","""","""","""","""",sampler,161,400730,0.0-6.0-155.0,"""","""","""","""","""","""","""","""","""","""","""","""","2021-08-13 22:30:13",189.218.23.19,"Mozilla/5.0 (Macintosh; Intel Mac OS X 10_15_7) AppleWebKit/537.36 (KHTML, like Gecko) Chrome/92.0.4515.131 Safari/537.36",Macintosh,Chrome,92.0.4515.131,"OS X",10_15_7,5f461dd6c139dd6b46c7596cbd57cd79
210,1,"""","""","""","""","""",sampler,162,400730,0.0-6.0-156.0,"""","""","""","""","""","""","""","""","""","""","""","""","2021-08-13 22:30:13",189.218.23.19,"Mozilla/5.0 (Macintosh; Intel Mac OS X 10_15_7) AppleWebKit/537.36 (KHTML, like Gecko) Chrome/92.0.4515.131 Safari/537.36",Macintosh,Chrome,92.0.4515.131,"OS X",10_15_7,5f461dd6c139dd6b46c7596cbd57cd79
210,1,"""","""","""","""","""",sampler,163,400730,0.0-6.0-157.0,"""","""","""","""","""","""","""","""","""","""","""","""","2021-08-13 22:30:13",189.218.23.19,"Mozilla/5.0 (Macintosh; Intel Mac OS X 10_15_7) AppleWebKit/537.36 (KHTML, like Gecko) Chrome/92.0.4515.131 Safari/537.36",Macintosh,Chrome,92.0.4515.131,"OS X",10_15_7,5f461dd6c139dd6b46c7596cbd57cd79
210,1,"""","""","""","""","""",sampler,164,400731,0.0-6.0-158.0,"""","""","""","""","""","""","""","""","""","""","""","""","2021-08-13 22:30:13",189.218.23.19,"Mozilla/5.0 (Macintosh; Intel Mac OS X 10_15_7) AppleWebKit/537.36 (KHTML, like Gecko) Chrome/92.0.4515.131 Safari/537.36",Macintosh,Chrome,92.0.4515.131,"OS X",10_15_7,5f461dd6c139dd6b46c7596cbd57cd79
210,1,"""","""","""","""","""",sampler,165,400731,0.0-6.0-159.0,"""","""","""","""","""","""","""","""","""","""","""","""","2021-08-13 22:30:13",189.218.23.19,"Mozilla/5.0 (Macintosh; Intel Mac OS X 10_15_7) AppleWebKit/537.36 (KHTML, like Gecko) Chrome/92.0.4515.131 Safari/537.36",Macintosh,Chrome,92.0.4515.131,"OS X",10_15_7,5f461dd6c139dd6b46c7596cbd57cd79
210,1,"""","""","""","""","""",sampler,166,400731,0.0-6.0-160.0,"""","""","""","""","""","""","""","""","""","""","""","""","2021-08-13 22:30:13",189.218.23.19,"Mozilla/5.0 (Macintosh; Intel Mac OS X 10_15_7) AppleWebKit/537.36 (KHTML, like Gecko) Chrome/92.0.4515.131 Safari/537.36",Macintosh,Chrome,92.0.4515.131,"OS X",10_15_7,5f461dd6c139dd6b46c7596cbd57cd79
210,1,"""","""","""","""","""",sampler,167,400731,0.0-6.0-161.0,"""","""","""","""","""","""","""","""","""","""","""","""","2021-08-13 22:30:13",189.218.23.19,"Mozilla/5.0 (Macintosh; Intel Mac OS X 10_15_7) AppleWebKit/537.36 (KHTML, like Gecko) Chrome/92.0.4515.131 Safari/537.36",Macintosh,Chrome,92.0.4515.131,"OS X",10_15_7,5f461dd6c139dd6b46c7596cbd57cd79
210,1,"""","""","""","""","""",sampler,168,400731,0.0-6.0-162.0,"""","""","""","""","""","""","""","""","""","""","""","""","2021-08-13 22:30:13",189.218.23.19,"Mozilla/5.0 (Macintosh; Intel Mac OS X 10_15_7) AppleWebKit/537.36 (KHTML, like Gecko) Chrome/92.0.4515.131 Safari/537.36",Macintosh,Chrome,92.0.4515.131,"OS X",10_15_7,5f461dd6c139dd6b46c7596cbd57cd79
210,1,"""","""","""","""","""",sampler,169,400731,0.0-6.0-163.0,"""","""","""","""","""","""","""","""","""","""","""","""","2021-08-13 22:30:13",189.218.23.19,"Mozilla/5.0 (Macintosh; Intel Mac OS X 10_15_7) AppleWebKit/537.36 (KHTML, like Gecko) Chrome/92.0.4515.131 Safari/537.36",Macintosh,Chrome,92.0.4515.131,"OS X",10_15_7,5f461dd6c139dd6b46c7596cbd57cd79
210,1,"""","""","""","""","""",sampler,170,400731,0.0-6.0-164.0,"""","""","""","""","""","""","""","""","""","""","""","""","2021-08-13 22:30:13",189.218.23.19,"Mozilla/5.0 (Macintosh; Intel Mac OS X 10_15_7) AppleWebKit/537.36 (KHTML, like Gecko) Chrome/92.0.4515.131 Safari/537.36",Macintosh,Chrome,92.0.4515.131,"OS X",10_15_7,5f461dd6c139dd6b46c7596cbd57cd79
210,1,"""","""","""","""","""",sampler,171,400731,0.0-6.0-165.0,"""","""","""","""","""","""","""","""","""","""","""","""","2021-08-13 22:30:13",189.218.23.19,"Mozilla/5.0 (Macintosh; Intel Mac OS X 10_15_7) AppleWebKit/537.36 (KHTML, like Gecko) Chrome/92.0.4515.131 Safari/537.36",Macintosh,Chrome,92.0.4515.131,"OS X",10_15_7,5f461dd6c139dd6b46c7596cbd57cd79
210,1,"""","""","""","""","""",sampler,172,400732,0.0-6.0-166.0,"""","""","""","""","""","""","""","""","""","""","""","""","2021-08-13 22:30:13",189.218.23.19,"Mozilla/5.0 (Macintosh; Intel Mac OS X 10_15_7) AppleWebKit/537.36 (KHTML, like Gecko) Chrome/92.0.4515.131 Safari/537.36",Macintosh,Chrome,92.0.4515.131,"OS X",10_15_7,5f461dd6c139dd6b46c7596cbd57cd79
210,1,"""","""","""","""","""",sampler,173,400732,0.0-6.0-167.0,"""","""","""","""","""","""","""","""","""","""","""","""","2021-08-13 22:30:13",189.218.23.19,"Mozilla/5.0 (Macintosh; Intel Mac OS X 10_15_7) AppleWebKit/537.36 (KHTML, like Gecko) Chrome/92.0.4515.131 Safari/537.36",Macintosh,Chrome,92.0.4515.131,"OS X",10_15_7,5f461dd6c139dd6b46c7596cbd57cd79
210,1,"""","""","""","""","""",sampler,174,400732,0.0-6.0-168.0,"""","""","""","""","""","""","""","""","""","""","""","""","2021-08-13 22:30:13",189.218.23.19,"Mozilla/5.0 (Macintosh; Intel Mac OS X 10_15_7) AppleWebKit/537.36 (KHTML, like Gecko) Chrome/92.0.4515.131 Safari/537.36",Macintosh,Chrome,92.0.4515.131,"OS X",10_15_7,5f461dd6c139dd6b46c7596cbd57cd79
210,1,"""","""","""","""","""",sampler,175,400732,0.0-6.0-169.0,"""","""","""","""","""","""","""","""","""","""","""","""","2021-08-13 22:30:13",189.218.23.19,"Mozilla/5.0 (Macintosh; Intel Mac OS X 10_15_7) AppleWebKit/537.36 (KHTML, like Gecko) Chrome/92.0.4515.131 Safari/537.36",Macintosh,Chrome,92.0.4515.131,"OS X",10_15_7,5f461dd6c139dd6b46c7596cbd57cd79
210,1,"""","""","""","""","""",sampler,176,400732,0.0-6.0-170.0,"""","""","""","""","""","""","""","""","""","""","""","""","2021-08-13 22:30:13",189.218.23.19,"Mozilla/5.0 (Macintosh; Intel Mac OS X 10_15_7) AppleWebKit/537.36 (KHTML, like Gecko) Chrome/92.0.4515.131 Safari/537.36",Macintosh,Chrome,92.0.4515.131,"OS X",10_15_7,5f461dd6c139dd6b46c7596cbd57cd79
210,1,"""","""","""","""","""",sampler,177,400732,0.0-6.0-171.0,"""","""","""","""","""","""","""","""","""","""","""","""","2021-08-13 22:30:13",189.218.23.19,"Mozilla/5.0 (Macintosh; Intel Mac OS X 10_15_7) AppleWebKit/537.36 (KHTML, like Gecko) Chrome/92.0.4515.131 Safari/537.36",Macintosh,Chrome,92.0.4515.131,"OS X",10_15_7,5f461dd6c139dd6b46c7596cbd57cd79
210,1,"""","""","""","""","""",sampler,178,400732,0.0-6.0-172.0,"""","""","""","""","""","""","""","""","""","""","""","""","2021-08-13 22:30:13",189.218.23.19,"Mozilla/5.0 (Macintosh; Intel Mac OS X 10_15_7) AppleWebKit/537.36 (KHTML, like Gecko) Chrome/92.0.4515.131 Safari/537.36",Macintosh,Chrome,92.0.4515.131,"OS X",10_15_7,5f461dd6c139dd6b46c7596cbd57cd79
210,1,"""","""","""","""","""",sampler,179,400732,0.0-6.0-173.0,"""","""","""","""","""","""","""","""","""","""","""","""","2021-08-13 22:30:13",189.218.23.19,"Mozilla/5.0 (Macintosh; Intel Mac OS X 10_15_7) AppleWebKit/537.36 (KHTML, like Gecko) Chrome/92.0.4515.131 Safari/537.36",Macintosh,Chrome,92.0.4515.131,"OS X",10_15_7,5f461dd6c139dd6b46c7596cbd57cd79
210,1,"""","""","""","""","""",sampler,180,400733,0.0-6.0-174.0,"""","""","""","""","""","""","""","""","""","""","""","""","2021-08-13 22:30:13",189.218.23.19,"Mozilla/5.0 (Macintosh; Intel Mac OS X 10_15_7) AppleWebKit/537.36 (KHTML, like Gecko) Chrome/92.0.4515.131 Safari/537.36",Macintosh,Chrome,92.0.4515.131,"OS X",10_15_7,5f461dd6c139dd6b46c7596cbd57cd79
210,1,"""","""","""","""","""",sampler,181,400733,0.0-6.0-175.0,"""","""","""","""","""","""","""","""","""","""","""","""","2021-08-13 22:30:13",189.218.23.19,"Mozilla/5.0 (Macintosh; Intel Mac OS X 10_15_7) AppleWebKit/537.36 (KHTML, like Gecko) Chrome/92.0.4515.131 Safari/537.36",Macintosh,Chrome,92.0.4515.131,"OS X",10_15_7,5f461dd6c139dd6b46c7596cbd57cd79
210,1,"""","""","""","""","""",sampler,182,400733,0.0-6.0-176.0,"""","""","""","""","""","""","""","""","""","""","""","""","2021-08-13 22:30:13",189.218.23.19,"Mozilla/5.0 (Macintosh; Intel Mac OS X 10_15_7) AppleWebKit/537.36 (KHTML, like Gecko) Chrome/92.0.4515.131 Safari/537.36",Macintosh,Chrome,92.0.4515.131,"OS X",10_15_7,5f461dd6c139dd6b46c7596cbd57cd79
210,1,"""","""","""","""","""",sampler,183,400733,0.0-6.0-177.0,"""","""","""","""","""","""","""","""","""","""","""","""","2021-08-13 22:30:13",189.218.23.19,"Mozilla/5.0 (Macintosh; Intel Mac OS X 10_15_7) AppleWebKit/537.36 (KHTML, like Gecko) Chrome/92.0.4515.131 Safari/537.36",Macintosh,Chrome,92.0.4515.131,"OS X",10_15_7,5f461dd6c139dd6b46c7596cbd57cd79
210,1,"""","""","""","""","""",sampler,184,400733,0.0-6.0-178.0,"""","""","""","""","""","""","""","""","""","""","""","""","2021-08-13 22:30:13",189.218.23.19,"Mozilla/5.0 (Macintosh; Intel Mac OS X 10_15_7) AppleWebKit/537.36 (KHTML, like Gecko) Chrome/92.0.4515.131 Safari/537.36",Macintosh,Chrome,92.0.4515.131,"OS X",10_15_7,5f461dd6c139dd6b46c7596cbd57cd79
210,1,"""","""","""","""","""",sampler,185,400733,0.0-6.0-179.0,"""","""","""","""","""","""","""","""","""","""","""","""","2021-08-13 22:30:13",189.218.23.19,"Mozilla/5.0 (Macintosh; Intel Mac OS X 10_15_7) AppleWebKit/537.36 (KHTML, like Gecko) Chrome/92.0.4515.131 Safari/537.36",Macintosh,Chrome,92.0.4515.131,"OS X",10_15_7,5f461dd6c139dd6b46c7596cbd57cd79
210,1,"""","""","""","""","""",sampler,186,400733,0.0-6.0-180.0,"""","""","""","""","""","""","""","""","""","""","""","""","2021-08-13 22:30:13",189.218.23.19,"Mozilla/5.0 (Macintosh; Intel Mac OS X 10_15_7) AppleWebKit/537.36 (KHTML, like Gecko) Chrome/92.0.4515.131 Safari/537.36",Macintosh,Chrome,92.0.4515.131,"OS X",10_15_7,5f461dd6c139dd6b46c7596cbd57cd79
210,1,"""","""","""","""","""",sampler,187,400733,0.0-6.0-181.0,"""","""","""","""","""","""","""","""","""","""","""","""","2021-08-13 22:30:13",189.218.23.19,"Mozilla/5.0 (Macintosh; Intel Mac OS X 10_15_7) AppleWebKit/537.36 (KHTML, like Gecko) Chrome/92.0.4515.131 Safari/537.36",Macintosh,Chrome,92.0.4515.131,"OS X",10_15_7,5f461dd6c139dd6b46c7596cbd57cd79
210,1,"""","""","""","""","""",sampler,188,400733,0.0-6.0-182.0,"""","""","""","""","""","""","""","""","""","""","""","""","2021-08-13 22:30:13",189.218.23.19,"Mozilla/5.0 (Macintosh; Intel Mac OS X 10_15_7) AppleWebKit/537.36 (KHTML, like Gecko) Chrome/92.0.4515.131 Safari/537.36",Macintosh,Chrome,92.0.4515.131,"OS X",10_15_7,5f461dd6c139dd6b46c7596cbd57cd79
210,1,"""","""","""","""","""",sampler,189,400734,0.0-6.0-183.0,"""","""","""","""","""","""","""","""","""","""","""","""","2021-08-13 22:30:13",189.218.23.19,"Mozilla/5.0 (Macintosh; Intel Mac OS X 10_15_7) AppleWebKit/537.36 (KHTML, like Gecko) Chrome/92.0.4515.131 Safari/537.36",Macintosh,Chrome,92.0.4515.131,"OS X",10_15_7,5f461dd6c139dd6b46c7596cbd57cd79
210,1,"""","""","""","""","""",sampler,190,400734,0.0-6.0-184.0,"""","""","""","""","""","""","""","""","""","""","""","""","2021-08-13 22:30:13",189.218.23.19,"Mozilla/5.0 (Macintosh; Intel Mac OS X 10_15_7) AppleWebKit/537.36 (KHTML, like Gecko) Chrome/92.0.4515.131 Safari/537.36",Macintosh,Chrome,92.0.4515.131,"OS X",10_15_7,5f461dd6c139dd6b46c7596cbd57cd79
210,1,"""","""","""","""","""",sampler,191,400734,0.0-6.0-185.0,"""","""","""","""","""","""","""","""","""","""","""","""","2021-08-13 22:30:13",189.218.23.19,"Mozilla/5.0 (Macintosh; Intel Mac OS X 10_15_7) AppleWebKit/537.36 (KHTML, like Gecko) Chrome/92.0.4515.131 Safari/537.36",Macintosh,Chrome,92.0.4515.131,"OS X",10_15_7,5f461dd6c139dd6b46c7596cbd57cd79
210,1,"""","""","""","""","""",sampler,192,400734,0.0-6.0-186.0,"""","""","""","""","""","""","""","""","""","""","""","""","2021-08-13 22:30:13",189.218.23.19,"Mozilla/5.0 (Macintosh; Intel Mac OS X 10_15_7) AppleWebKit/537.36 (KHTML, like Gecko) Chrome/92.0.4515.131 Safari/537.36",Macintosh,Chrome,92.0.4515.131,"OS X",10_15_7,5f461dd6c139dd6b46c7596cbd57cd79
210,1,"""","""","""","""","""",sampler,193,400734,0.0-6.0-187.0,"""","""","""","""","""","""","""","""","""","""","""","""","2021-08-13 22:30:13",189.218.23.19,"Mozilla/5.0 (Macintosh; Intel Mac OS X 10_15_7) AppleWebKit/537.36 (KHTML, like Gecko) Chrome/92.0.4515.131 Safari/537.36",Macintosh,Chrome,92.0.4515.131,"OS X",10_15_7,5f461dd6c139dd6b46c7596cbd57cd79
210,1,"""","""","""","""","""",sampler,194,400734,0.0-6.0-188.0,"""","""","""","""","""","""","""","""","""","""","""","""","2021-08-13 22:30:13",189.218.23.19,"Mozilla/5.0 (Macintosh; Intel Mac OS X 10_15_7) AppleWebKit/537.36 (KHTML, like Gecko) Chrome/92.0.4515.131 Safari/537.36",Macintosh,Chrome,92.0.4515.131,"OS X",10_15_7,5f461dd6c139dd6b46c7596cbd57cd79
210,1,"""","""","""","""","""",sampler,195,400735,0.0-6.0-189.0,"""","""","""","""","""","""","""","""","""","""","""","""","2021-08-13 22:30:13",189.218.23.19,"Mozilla/5.0 (Macintosh; Intel Mac OS X 10_15_7) AppleWebKit/537.36 (KHTML, like Gecko) Chrome/92.0.4515.131 Safari/537.36",Macintosh,Chrome,92.0.4515.131,"OS X",10_15_7,5f461dd6c139dd6b46c7596cbd57cd79
210,1,"""","""","""","""","""",sampler,196,400735,0.0-6.0-190.0,"""","""","""","""","""","""","""","""","""","""","""","""","2021-08-13 22:30:13",189.218.23.19,"Mozilla/5.0 (Macintosh; Intel Mac OS X 10_15_7) AppleWebKit/537.36 (KHTML, like Gecko) Chrome/92.0.4515.131 Safari/537.36",Macintosh,Chrome,92.0.4515.131,"OS X",10_15_7,5f461dd6c139dd6b46c7596cbd57cd79
210,1,"""","""","""","""","""",sampler,197,400735,0.0-6.0-191.0,"""","""","""","""","""","""","""","""","""","""","""","""","2021-08-13 22:30:13",189.218.23.19,"Mozilla/5.0 (Macintosh; Intel Mac OS X 10_15_7) AppleWebKit/537.36 (KHTML, like Gecko) Chrome/92.0.4515.131 Safari/537.36",Macintosh,Chrome,92.0.4515.131,"OS X",10_15_7,5f461dd6c139dd6b46c7596cbd57cd79
210,1,"""","""","""","""","""",sampler,198,400735,0.0-6.0-192.0,"""","""","""","""","""","""","""","""","""","""","""","""","2021-08-13 22:30:13",189.218.23.19,"Mozilla/5.0 (Macintosh; Intel Mac OS X 10_15_7) AppleWebKit/537.36 (KHTML, like Gecko) Chrome/92.0.4515.131 Safari/537.36",Macintosh,Chrome,92.0.4515.131,"OS X",10_15_7,5f461dd6c139dd6b46c7596cbd57cd79
210,1,"""","""","""","""","""",sampler,199,400735,0.0-6.0-193.0,"""","""","""","""","""","""","""","""","""","""","""","""","2021-08-13 22:30:13",189.218.23.19,"Mozilla/5.0 (Macintosh; Intel Mac OS X 10_15_7) AppleWebKit/537.36 (KHTML, like Gecko) Chrome/92.0.4515.131 Safari/537.36",Macintosh,Chrome,92.0.4515.131,"OS X",10_15_7,5f461dd6c139dd6b46c7596cbd57cd79
210,1,"""","""","""","""","""",sampler,200,400736,0.0-6.0-194.0,"""","""","""","""","""","""","""","""","""","""","""","""","2021-08-13 22:30:13",189.218.23.19,"Mozilla/5.0 (Macintosh; Intel Mac OS X 10_15_7) AppleWebKit/537.36 (KHTML, like Gecko) Chrome/92.0.4515.131 Safari/537.36",Macintosh,Chrome,92.0.4515.131,"OS X",10_15_7,5f461dd6c139dd6b46c7596cbd57cd79
210,1,"""","""","""","""","""",sampler,201,400736,0.0-6.0-195.0,"""","""","""","""","""","""","""","""","""","""","""","""","2021-08-13 22:30:13",189.218.23.19,"Mozilla/5.0 (Macintosh; Intel Mac OS X 10_15_7) AppleWebKit/537.36 (KHTML, like Gecko) Chrome/92.0.4515.131 Safari/537.36",Macintosh,Chrome,92.0.4515.131,"OS X",10_15_7,5f461dd6c139dd6b46c7596cbd57cd79
210,1,"""","""","""","""","""",sampler,202,400736,0.0-6.0-196.0,"""","""","""","""","""","""","""","""","""","""","""","""","2021-08-13 22:30:13",189.218.23.19,"Mozilla/5.0 (Macintosh; Intel Mac OS X 10_15_7) AppleWebKit/537.36 (KHTML, like Gecko) Chrome/92.0.4515.131 Safari/537.36",Macintosh,Chrome,92.0.4515.131,"OS X",10_15_7,5f461dd6c139dd6b46c7596cbd57cd79
210,1,"""","""","""","""","""",sampler,203,400736,0.0-6.0-197.0,"""","""","""","""","""","""","""","""","""","""","""","""","2021-08-13 22:30:13",189.218.23.19,"Mozilla/5.0 (Macintosh; Intel Mac OS X 10_15_7) AppleWebKit/537.36 (KHTML, like Gecko) Chrome/92.0.4515.131 Safari/537.36",Macintosh,Chrome,92.0.4515.131,"OS X",10_15_7,5f461dd6c139dd6b46c7596cbd57cd79
210,1,"""","""","""","""","""",sampler,204,400736,0.0-6.0-198.0,"""","""","""","""","""","""","""","""","""","""","""","""","2021-08-13 22:30:13",189.218.23.19,"Mozilla/5.0 (Macintosh; Intel Mac OS X 10_15_7) AppleWebKit/537.36 (KHTML, like Gecko) Chrome/92.0.4515.131 Safari/537.36",Macintosh,Chrome,92.0.4515.131,"OS X",10_15_7,5f461dd6c139dd6b46c7596cbd57cd79
210,1,"""","""","""","""","""",sampler,205,400736,0.0-6.0-199.0,"""","""","""","""","""","""","""","""","""","""","""","""","2021-08-13 22:30:13",189.218.23.19,"Mozilla/5.0 (Macintosh; Intel Mac OS X 10_15_7) AppleWebKit/537.36 (KHTML, like Gecko) Chrome/92.0.4515.131 Safari/537.36",Macintosh,Chrome,92.0.4515.131,"OS X",10_15_7,5f461dd6c139dd6b46c7596cbd57cd79
210,1,"""","""","""","""","""",sampler,206,400736,0.0-6.0-200.0,"""","""","""","""","""","""","""","""","""","""","""","""","2021-08-13 22:30:13",189.218.23.19,"Mozilla/5.0 (Macintosh; Intel Mac OS X 10_15_7) AppleWebKit/537.36 (KHTML, like Gecko) Chrome/92.0.4515.131 Safari/537.36",Macintosh,Chrome,92.0.4515.131,"OS X",10_15_7,5f461dd6c139dd6b46c7596cbd57cd79
210,1,"""","""","""","""","""",sampler,207,400736,0.0-6.0-201.0,"""","""","""","""","""","""","""","""","""","""","""","""","2021-08-13 22:30:13",189.218.23.19,"Mozilla/5.0 (Macintosh; Intel Mac OS X 10_15_7) AppleWebKit/537.36 (KHTML, like Gecko) Chrome/92.0.4515.131 Safari/537.36",Macintosh,Chrome,92.0.4515.131,"OS X",10_15_7,5f461dd6c139dd6b46c7596cbd57cd79
210,1,"""","""","""","""","""",sampler,208,400736,0.0-6.0-202.0,"""","""","""","""","""","""","""","""","""","""","""","""","2021-08-13 22:30:13",189.218.23.19,"Mozilla/5.0 (Macintosh; Intel Mac OS X 10_15_7) AppleWebKit/537.36 (KHTML, like Gecko) Chrome/92.0.4515.131 Safari/537.36",Macintosh,Chrome,92.0.4515.131,"OS X",10_15_7,5f461dd6c139dd6b46c7596cbd57cd79
210,1,"""","""","""","""","""",sampler,209,400737,0.0-6.0-203.0,"""","""","""","""","""","""","""","""","""","""","""","""","2021-08-13 22:30:13",189.218.23.19,"Mozilla/5.0 (Macintosh; Intel Mac OS X 10_15_7) AppleWebKit/537.36 (KHTML, like Gecko) Chrome/92.0.4515.131 Safari/537.36",Macintosh,Chrome,92.0.4515.131,"OS X",10_15_7,5f461dd6c139dd6b46c7596cbd57cd79
210,1,"""","""","""","""","""",sampler,210,400737,0.0-6.0-204.0,"""","""","""","""","""","""","""","""","""","""","""","""","2021-08-13 22:30:13",189.218.23.19,"Mozilla/5.0 (Macintosh; Intel Mac OS X 10_15_7) AppleWebKit/537.36 (KHTML, like Gecko) Chrome/92.0.4515.131 Safari/537.36",Macintosh,Chrome,92.0.4515.131,"OS X",10_15_7,5f461dd6c139dd6b46c7596cbd57cd79
210,1,"""","""","""","""","""",sampler,211,400737,0.0-6.0-205.0,"""","""","""","""","""","""","""","""","""","""","""","""","2021-08-13 22:30:13",189.218.23.19,"Mozilla/5.0 (Macintosh; Intel Mac OS X 10_15_7) AppleWebKit/537.36 (KHTML, like Gecko) Chrome/92.0.4515.131 Safari/537.36",Macintosh,Chrome,92.0.4515.131,"OS X",10_15_7,5f461dd6c139dd6b46c7596cbd57cd79
210,1,"""","""","""","""","""",sampler,212,400737,0.0-6.0-206.0,"""","""","""","""","""","""","""","""","""","""","""","""","2021-08-13 22:30:13",189.218.23.19,"Mozilla/5.0 (Macintosh; Intel Mac OS X 10_15_7) AppleWebKit/537.36 (KHTML, like Gecko) Chrome/92.0.4515.131 Safari/537.36",Macintosh,Chrome,92.0.4515.131,"OS X",10_15_7,5f461dd6c139dd6b46c7596cbd57cd79
210,1,"""","""","""","""","""",sampler,213,400737,0.0-6.0-207.0,"""","""","""","""","""","""","""","""","""","""","""","""","2021-08-13 22:30:13",189.218.23.19,"Mozilla/5.0 (Macintosh; Intel Mac OS X 10_15_7) AppleWebKit/537.36 (KHTML, like Gecko) Chrome/92.0.4515.131 Safari/537.36",Macintosh,Chrome,92.0.4515.131,"OS X",10_15_7,5f461dd6c139dd6b46c7596cbd57cd79
210,1,"""","""","""","""","""",sampler,214,400737,0.0-6.0-208.0,"""","""","""","""","""","""","""","""","""","""","""","""","2021-08-13 22:30:13",189.218.23.19,"Mozilla/5.0 (Macintosh; Intel Mac OS X 10_15_7) AppleWebKit/537.36 (KHTML, like Gecko) Chrome/92.0.4515.131 Safari/537.36",Macintosh,Chrome,92.0.4515.131,"OS X",10_15_7,5f461dd6c139dd6b46c7596cbd57cd79
210,1,"""","""","""","""","""",sampler,215,400737,0.0-6.0-209.0,"""","""","""","""","""","""","""","""","""","""","""","""","2021-08-13 22:30:13",189.218.23.19,"Mozilla/5.0 (Macintosh; Intel Mac OS X 10_15_7) AppleWebKit/537.36 (KHTML, like Gecko) Chrome/92.0.4515.131 Safari/537.36",Macintosh,Chrome,92.0.4515.131,"OS X",10_15_7,5f461dd6c139dd6b46c7596cbd57cd79
210,1,"""","""","""","""","""",sampler,216,400737,0.0-6.0-210.0,"""","""","""","""","""","""","""","""","""","""","""","""","2021-08-13 22:30:13",189.218.23.19,"Mozilla/5.0 (Macintosh; Intel Mac OS X 10_15_7) AppleWebKit/537.36 (KHTML, like Gecko) Chrome/92.0.4515.131 Safari/537.36",Macintosh,Chrome,92.0.4515.131,"OS X",10_15_7,5f461dd6c139dd6b46c7596cbd57cd79
210,1,"""","""","""","""","""",sampler,217,400737,0.0-6.0-211.0,"""","""","""","""","""","""","""","""","""","""","""","""","2021-08-13 22:30:13",189.218.23.19,"Mozilla/5.0 (Macintosh; Intel Mac OS X 10_15_7) AppleWebKit/537.36 (KHTML, like Gecko) Chrome/92.0.4515.131 Safari/537.36",Macintosh,Chrome,92.0.4515.131,"OS X",10_15_7,5f461dd6c139dd6b46c7596cbd57cd79
210,1,"""","""","""","""","""",sampler,218,400738,0.0-6.0-212.0,"""","""","""","""","""","""","""","""","""","""","""","""","2021-08-13 22:30:13",189.218.23.19,"Mozilla/5.0 (Macintosh; Intel Mac OS X 10_15_7) AppleWebKit/537.36 (KHTML, like Gecko) Chrome/92.0.4515.131 Safari/537.36",Macintosh,Chrome,92.0.4515.131,"OS X",10_15_7,5f461dd6c139dd6b46c7596cbd57cd79
210,1,"""","""","""","""","""",sampler,219,400738,0.0-6.0-213.0,"""","""","""","""","""","""","""","""","""","""","""","""","2021-08-13 22:30:13",189.218.23.19,"Mozilla/5.0 (Macintosh; Intel Mac OS X 10_15_7) AppleWebKit/537.36 (KHTML, like Gecko) Chrome/92.0.4515.131 Safari/537.36",Macintosh,Chrome,92.0.4515.131,"OS X",10_15_7,5f461dd6c139dd6b46c7596cbd57cd79
210,1,"""","""","""","""","""",sampler,220,400738,0.0-6.0-214.0,"""","""","""","""","""","""","""","""","""","""","""","""","2021-08-13 22:30:13",189.218.23.19,"Mozilla/5.0 (Macintosh; Intel Mac OS X 10_15_7) AppleWebKit/537.36 (KHTML, like Gecko) Chrome/92.0.4515.131 Safari/537.36",Macintosh,Chrome,92.0.4515.131,"OS X",10_15_7,5f461dd6c139dd6b46c7596cbd57cd79
210,1,"""","""","""","""","""",sampler,221,400738,0.0-6.0-215.0,"""","""","""","""","""","""","""","""","""","""","""","""","2021-08-13 22:30:13",189.218.23.19,"Mozilla/5.0 (Macintosh; Intel Mac OS X 10_15_7) AppleWebKit/537.36 (KHTML, like Gecko) Chrome/92.0.4515.131 Safari/537.36",Macintosh,Chrome,92.0.4515.131,"OS X",10_15_7,5f461dd6c139dd6b46c7596cbd57cd79
210,1,"""","""","""","""","""",sampler,222,400738,0.0-6.0-216.0,"""","""","""","""","""","""","""","""","""","""","""","""","2021-08-13 22:30:13",189.218.23.19,"Mozilla/5.0 (Macintosh; Intel Mac OS X 10_15_7) AppleWebKit/537.36 (KHTML, like Gecko) Chrome/92.0.4515.131 Safari/537.36",Macintosh,Chrome,92.0.4515.131,"OS X",10_15_7,5f461dd6c139dd6b46c7596cbd57cd79
210,1,"""","""","""","""","""",sampler,223,400738,0.0-6.0-217.0,"""","""","""","""","""","""","""","""","""","""","""","""","2021-08-13 22:30:13",189.218.23.19,"Mozilla/5.0 (Macintosh; Intel Mac OS X 10_15_7) AppleWebKit/537.36 (KHTML, like Gecko) Chrome/92.0.4515.131 Safari/537.36",Macintosh,Chrome,92.0.4515.131,"OS X",10_15_7,5f461dd6c139dd6b46c7596cbd57cd79
210,1,"""","""","""","""","""",sampler,224,400738,0.0-6.0-218.0,"""","""","""","""","""","""","""","""","""","""","""","""","2021-08-13 22:30:13",189.218.23.19,"Mozilla/5.0 (Macintosh; Intel Mac OS X 10_15_7) AppleWebKit/537.36 (KHTML, like Gecko) Chrome/92.0.4515.131 Safari/537.36",Macintosh,Chrome,92.0.4515.131,"OS X",10_15_7,5f461dd6c139dd6b46c7596cbd57cd79
210,1,"""","""","""","""","""",sampler,225,400738,0.0-6.0-219.0,"""","""","""","""","""","""","""","""","""","""","""","""","2021-08-13 22:30:13",189.218.23.19,"Mozilla/5.0 (Macintosh; Intel Mac OS X 10_15_7) AppleWebKit/537.36 (KHTML, like Gecko) Chrome/92.0.4515.131 Safari/537.36",Macintosh,Chrome,92.0.4515.131,"OS X",10_15_7,5f461dd6c139dd6b46c7596cbd57cd79
210,1,"""","""","""","""","""",sampler,226,400738,0.0-6.0-220.0,"""","""","""","""","""","""","""","""","""","""","""","""","2021-08-13 22:30:13",189.218.23.19,"Mozilla/5.0 (Macintosh; Intel Mac OS X 10_15_7) AppleWebKit/537.36 (KHTML, like Gecko) Chrome/92.0.4515.131 Safari/537.36",Macintosh,Chrome,92.0.4515.131,"OS X",10_15_7,5f461dd6c139dd6b46c7596cbd57cd79
210,1,"""","""","""","""","""",sampler,227,400738,0.0-6.0-221.0,"""","""","""","""","""","""","""","""","""","""","""","""","2021-08-13 22:30:13",189.218.23.19,"Mozilla/5.0 (Macintosh; Intel Mac OS X 10_15_7) AppleWebKit/537.36 (KHTML, like Gecko) Chrome/92.0.4515.131 Safari/537.36",Macintosh,Chrome,92.0.4515.131,"OS X",10_15_7,5f461dd6c139dd6b46c7596cbd57cd79
210,1,"""","""","""","""","""",sampler,228,400739,0.0-6.0-222.0,"""","""","""","""","""","""","""","""","""","""","""","""","2021-08-13 22:30:13",189.218.23.19,"Mozilla/5.0 (Macintosh; Intel Mac OS X 10_15_7) AppleWebKit/537.36 (KHTML, like Gecko) Chrome/92.0.4515.131 Safari/537.36",Macintosh,Chrome,92.0.4515.131,"OS X",10_15_7,5f461dd6c139dd6b46c7596cbd57cd79
210,1,"""","""","""","""","""",sampler,229,400739,0.0-6.0-223.0,"""","""","""","""","""","""","""","""","""","""","""","""","2021-08-13 22:30:13",189.218.23.19,"Mozilla/5.0 (Macintosh; Intel Mac OS X 10_15_7) AppleWebKit/537.36 (KHTML, like Gecko) Chrome/92.0.4515.131 Safari/537.36",Macintosh,Chrome,92.0.4515.131,"OS X",10_15_7,5f461dd6c139dd6b46c7596cbd57cd79
210,1,"""","""","""","""","""",sampler,230,400739,0.0-6.0-224.0,"""","""","""","""","""","""","""","""","""","""","""","""","2021-08-13 22:30:13",189.218.23.19,"Mozilla/5.0 (Macintosh; Intel Mac OS X 10_15_7) AppleWebKit/537.36 (KHTML, like Gecko) Chrome/92.0.4515.131 Safari/537.36",Macintosh,Chrome,92.0.4515.131,"OS X",10_15_7,5f461dd6c139dd6b46c7596cbd57cd79
210,1,"""","""","""","""","""",sampler,231,400739,0.0-6.0-225.0,"""","""","""","""","""","""","""","""","""","""","""","""","2021-08-13 22:30:13",189.218.23.19,"Mozilla/5.0 (Macintosh; Intel Mac OS X 10_15_7) AppleWebKit/537.36 (KHTML, like Gecko) Chrome/92.0.4515.131 Safari/537.36",Macintosh,Chrome,92.0.4515.131,"OS X",10_15_7,5f461dd6c139dd6b46c7596cbd57cd79
210,1,"""","""","""","""","""",sampler,232,400739,0.0-6.0-226.0,"""","""","""","""","""","""","""","""","""","""","""","""","2021-08-13 22:30:13",189.218.23.19,"Mozilla/5.0 (Macintosh; Intel Mac OS X 10_15_7) AppleWebKit/537.36 (KHTML, like Gecko) Chrome/92.0.4515.131 Safari/537.36",Macintosh,Chrome,92.0.4515.131,"OS X",10_15_7,5f461dd6c139dd6b46c7596cbd57cd79
210,1,"""","""","""","""","""",sampler,233,400739,0.0-6.0-227.0,"""","""","""","""","""","""","""","""","""","""","""","""","2021-08-13 22:30:13",189.218.23.19,"Mozilla/5.0 (Macintosh; Intel Mac OS X 10_15_7) AppleWebKit/537.36 (KHTML, like Gecko) Chrome/92.0.4515.131 Safari/537.36",Macintosh,Chrome,92.0.4515.131,"OS X",10_15_7,5f461dd6c139dd6b46c7596cbd57cd79
210,1,"""","""","""","""","""",sampler,234,400739,0.0-6.0-228.0,"""","""","""","""","""","""","""","""","""","""","""","""","2021-08-13 22:30:13",189.218.23.19,"Mozilla/5.0 (Macintosh; Intel Mac OS X 10_15_7) AppleWebKit/537.36 (KHTML, like Gecko) Chrome/92.0.4515.131 Safari/537.36",Macintosh,Chrome,92.0.4515.131,"OS X",10_15_7,5f461dd6c139dd6b46c7596cbd57cd79
210,1,"""","""","""","""","""",sampler,235,400739,0.0-6.0-229.0,"""","""","""","""","""","""","""","""","""","""","""","""","2021-08-13 22:30:13",189.218.23.19,"Mozilla/5.0 (Macintosh; Intel Mac OS X 10_15_7) AppleWebKit/537.36 (KHTML, like Gecko) Chrome/92.0.4515.131 Safari/537.36",Macintosh,Chrome,92.0.4515.131,"OS X",10_15_7,5f461dd6c139dd6b46c7596cbd57cd79
210,1,"""","""","""","""","""",sampler,236,400739,0.0-6.0-230.0,"""","""","""","""","""","""","""","""","""","""","""","""","2021-08-13 22:30:13",189.218.23.19,"Mozilla/5.0 (Macintosh; Intel Mac OS X 10_15_7) AppleWebKit/537.36 (KHTML, like Gecko) Chrome/92.0.4515.131 Safari/537.36",Macintosh,Chrome,92.0.4515.131,"OS X",10_15_7,5f461dd6c139dd6b46c7596cbd57cd79
210,1,"""","""","""","""","""",sampler,237,400740,0.0-6.0-231.0,"""","""","""","""","""","""","""","""","""","""","""","""","2021-08-13 22:30:13",189.218.23.19,"Mozilla/5.0 (Macintosh; Intel Mac OS X 10_15_7) AppleWebKit/537.36 (KHTML, like Gecko) Chrome/92.0.4515.131 Safari/537.36",Macintosh,Chrome,92.0.4515.131,"OS X",10_15_7,5f461dd6c139dd6b46c7596cbd57cd79
210,1,"""","""","""","""","""",sampler,238,400740,0.0-6.0-232.0,"""","""","""","""","""","""","""","""","""","""","""","""","2021-08-13 22:30:13",189.218.23.19,"Mozilla/5.0 (Macintosh; Intel Mac OS X 10_15_7) AppleWebKit/537.36 (KHTML, like Gecko) Chrome/92.0.4515.131 Safari/537.36",Macintosh,Chrome,92.0.4515.131,"OS X",10_15_7,5f461dd6c139dd6b46c7596cbd57cd79
210,1,"""","""","""","""","""",sampler,239,400740,0.0-6.0-233.0,"""","""","""","""","""","""","""","""","""","""","""","""","2021-08-13 22:30:13",189.218.23.19,"Mozilla/5.0 (Macintosh; Intel Mac OS X 10_15_7) AppleWebKit/537.36 (KHTML, like Gecko) Chrome/92.0.4515.131 Safari/537.36",Macintosh,Chrome,92.0.4515.131,"OS X",10_15_7,5f461dd6c139dd6b46c7596cbd57cd79
210,1,"""","""","""","""","""",sampler,240,400740,0.0-6.0-234.0,"""","""","""","""","""","""","""","""","""","""","""","""","2021-08-13 22:30:13",189.218.23.19,"Mozilla/5.0 (Macintosh; Intel Mac OS X 10_15_7) AppleWebKit/537.36 (KHTML, like Gecko) Chrome/92.0.4515.131 Safari/537.36",Macintosh,Chrome,92.0.4515.131,"OS X",10_15_7,5f461dd6c139dd6b46c7596cbd57cd79
210,1,"""","""","""","""","""",sampler,241,400740,0.0-6.0-235.0,"""","""","""","""","""","""","""","""","""","""","""","""","2021-08-13 22:30:13",189.218.23.19,"Mozilla/5.0 (Macintosh; Intel Mac OS X 10_15_7) AppleWebKit/537.36 (KHTML, like Gecko) Chrome/92.0.4515.131 Safari/537.36",Macintosh,Chrome,92.0.4515.131,"OS X",10_15_7,5f461dd6c139dd6b46c7596cbd57cd79
210,1,"""","""","""","""","""",sampler,242,400740,0.0-6.0-236.0,"""","""","""","""","""","""","""","""","""","""","""","""","2021-08-13 22:30:13",189.218.23.19,"Mozilla/5.0 (Macintosh; Intel Mac OS X 10_15_7) AppleWebKit/537.36 (KHTML, like Gecko) Chrome/92.0.4515.131 Safari/537.36",Macintosh,Chrome,92.0.4515.131,"OS X",10_15_7,5f461dd6c139dd6b46c7596cbd57cd79
210,1,"""","""","""","""","""",sampler,243,400740,0.0-6.0-237.0,"""","""","""","""","""","""","""","""","""","""","""","""","2021-08-13 22:30:13",189.218.23.19,"Mozilla/5.0 (Macintosh; Intel Mac OS X 10_15_7) AppleWebKit/537.36 (KHTML, like Gecko) Chrome/92.0.4515.131 Safari/537.36",Macintosh,Chrome,92.0.4515.131,"OS X",10_15_7,5f461dd6c139dd6b46c7596cbd57cd79
210,1,"""","""","""","""","""",sampler,244,400740,0.0-6.0-238.0,"""","""","""","""","""","""","""","""","""","""","""","""","2021-08-13 22:30:13",189.218.23.19,"Mozilla/5.0 (Macintosh; Intel Mac OS X 10_15_7) AppleWebKit/537.36 (KHTML, like Gecko) Chrome/92.0.4515.131 Safari/537.36",Macintosh,Chrome,92.0.4515.131,"OS X",10_15_7,5f461dd6c139dd6b46c7596cbd57cd79
210,1,"""","""","""","""","""",sampler,245,400740,0.0-6.0-239.0,"""","""","""","""","""","""","""","""","""","""","""","""","2021-08-13 22:30:13",189.218.23.19,"Mozilla/5.0 (Macintosh; Intel Mac OS X 10_15_7) AppleWebKit/537.36 (KHTML, like Gecko) Chrome/92.0.4515.131 Safari/537.36",Macintosh,Chrome,92.0.4515.131,"OS X",10_15_7,5f461dd6c139dd6b46c7596cbd57cd79
210,1,"""","""","""","""","""",sampler,246,400741,0.0-6.0-240.0,"""","""","""","""","""","""","""","""","""","""","""","""","2021-08-13 22:30:13",189.218.23.19,"Mozilla/5.0 (Macintosh; Intel Mac OS X 10_15_7) AppleWebKit/537.36 (KHTML, like Gecko) Chrome/92.0.4515.131 Safari/537.36",Macintosh,Chrome,92.0.4515.131,"OS X",10_15_7,5f461dd6c139dd6b46c7596cbd57cd79
210,1,"""","""","""","""","""",sampler,247,400741,0.0-6.0-241.0,"""","""","""","""","""","""","""","""","""","""","""","""","2021-08-13 22:30:13",189.218.23.19,"Mozilla/5.0 (Macintosh; Intel Mac OS X 10_15_7) AppleWebKit/537.36 (KHTML, like Gecko) Chrome/92.0.4515.131 Safari/537.36",Macintosh,Chrome,92.0.4515.131,"OS X",10_15_7,5f461dd6c139dd6b46c7596cbd57cd79
210,1,"""","""","""","""","""",sampler,248,400741,0.0-6.0-242.0,"""","""","""","""","""","""","""","""","""","""","""","""","2021-08-13 22:30:13",189.218.23.19,"Mozilla/5.0 (Macintosh; Intel Mac OS X 10_15_7) AppleWebKit/537.36 (KHTML, like Gecko) Chrome/92.0.4515.131 Safari/537.36",Macintosh,Chrome,92.0.4515.131,"OS X",10_15_7,5f461dd6c139dd6b46c7596cbd57cd79
210,1,"""","""","""","""","""",sampler,249,400741,0.0-6.0-243.0,"""","""","""","""","""","""","""","""","""","""","""","""","2021-08-13 22:30:13",189.218.23.19,"Mozilla/5.0 (Macintosh; Intel Mac OS X 10_15_7) AppleWebKit/537.36 (KHTML, like Gecko) Chrome/92.0.4515.131 Safari/537.36",Macintosh,Chrome,92.0.4515.131,"OS X",10_15_7,5f461dd6c139dd6b46c7596cbd57cd79
210,1,"""","""","""","""","""",sampler,250,400741,0.0-6.0-244.0,"""","""","""","""","""","""","""","""","""","""","""","""","2021-08-13 22:30:13",189.218.23.19,"Mozilla/5.0 (Macintosh; Intel Mac OS X 10_15_7) AppleWebKit/537.36 (KHTML, like Gecko) Chrome/92.0.4515.131 Safari/537.36",Macintosh,Chrome,92.0.4515.131,"OS X",10_15_7,5f461dd6c139dd6b46c7596cbd57cd79
210,1,"""","""","""","""","""",sampler,251,400741,0.0-6.0-245.0,"""","""","""","""","""","""","""","""","""","""","""","""","2021-08-13 22:30:13",189.218.23.19,"Mozilla/5.0 (Macintosh; Intel Mac OS X 10_15_7) AppleWebKit/537.36 (KHTML, like Gecko) Chrome/92.0.4515.131 Safari/537.36",Macintosh,Chrome,92.0.4515.131,"OS X",10_15_7,5f461dd6c139dd6b46c7596cbd57cd79
210,1,"""","""","""","""","""",sampler,252,400741,0.0-6.0-246.0,"""","""","""","""","""","""","""","""","""","""","""","""","2021-08-13 22:30:13",189.218.23.19,"Mozilla/5.0 (Macintosh; Intel Mac OS X 10_15_7) AppleWebKit/537.36 (KHTML, like Gecko) Chrome/92.0.4515.131 Safari/537.36",Macintosh,Chrome,92.0.4515.131,"OS X",10_15_7,5f461dd6c139dd6b46c7596cbd57cd79
210,1,"""","""","""","""","""",sampler,253,400741,0.0-6.0-247.0,"""","""","""","""","""","""","""","""","""","""","""","""","2021-08-13 22:30:13",189.218.23.19,"Mozilla/5.0 (Macintosh; Intel Mac OS X 10_15_7) AppleWebKit/537.36 (KHTML, like Gecko) Chrome/92.0.4515.131 Safari/537.36",Macintosh,Chrome,92.0.4515.131,"OS X",10_15_7,5f461dd6c139dd6b46c7596cbd57cd79
210,1,"""","""","""","""","""",sampler,254,400742,0.0-6.0-248.0,"""","""","""","""","""","""","""","""","""","""","""","""","2021-08-13 22:30:13",189.218.23.19,"Mozilla/5.0 (Macintosh; Intel Mac OS X 10_15_7) AppleWebKit/537.36 (KHTML, like Gecko) Chrome/92.0.4515.131 Safari/537.36",Macintosh,Chrome,92.0.4515.131,"OS X",10_15_7,5f461dd6c139dd6b46c7596cbd57cd79
210,1,"""","""","""","""","""",sampler,255,400742,0.0-6.0-249.0,"""","""","""","""","""","""","""","""","""","""","""","""","2021-08-13 22:30:13",189.218.23.19,"Mozilla/5.0 (Macintosh; Intel Mac OS X 10_15_7) AppleWebKit/537.36 (KHTML, like Gecko) Chrome/92.0.4515.131 Safari/537.36",Macintosh,Chrome,92.0.4515.131,"OS X",10_15_7,5f461dd6c139dd6b46c7596cbd57cd79
210,1,"""","""","""","""","""",sampler,256,400742,0.0-6.0-250.0,"""","""","""","""","""","""","""","""","""","""","""","""","2021-08-13 22:30:13",189.218.23.19,"Mozilla/5.0 (Macintosh; Intel Mac OS X 10_15_7) AppleWebKit/537.36 (KHTML, like Gecko) Chrome/92.0.4515.131 Safari/537.36",Macintosh,Chrome,92.0.4515.131,"OS X",10_15_7,5f461dd6c139dd6b46c7596cbd57cd79
210,1,"""","""","""","""","""",sampler,257,400742,0.0-6.0-251.0,"""","""","""","""","""","""","""","""","""","""","""","""","2021-08-13 22:30:13",189.218.23.19,"Mozilla/5.0 (Macintosh; Intel Mac OS X 10_15_7) AppleWebKit/537.36 (KHTML, like Gecko) Chrome/92.0.4515.131 Safari/537.36",Macintosh,Chrome,92.0.4515.131,"OS X",10_15_7,5f461dd6c139dd6b46c7596cbd57cd79
210,1,"""","""","""","""","""",sampler,258,400742,0.0-6.0-252.0,"""","""","""","""","""","""","""","""","""","""","""","""","2021-08-13 22:30:13",189.218.23.19,"Mozilla/5.0 (Macintosh; Intel Mac OS X 10_15_7) AppleWebKit/537.36 (KHTML, like Gecko) Chrome/92.0.4515.131 Safari/537.36",Macintosh,Chrome,92.0.4515.131,"OS X",10_15_7,5f461dd6c139dd6b46c7596cbd57cd79
210,1,"""","""","""","""","""",sampler,259,400742,0.0-6.0-253.0,"""","""","""","""","""","""","""","""","""","""","""","""","2021-08-13 22:30:13",189.218.23.19,"Mozilla/5.0 (Macintosh; Intel Mac OS X 10_15_7) AppleWebKit/537.36 (KHTML, like Gecko) Chrome/92.0.4515.131 Safari/537.36",Macintosh,Chrome,92.0.4515.131,"OS X",10_15_7,5f461dd6c139dd6b46c7596cbd57cd79
210,1,"""","""","""","""","""",sampler,260,400742,0.0-6.0-254.0,"""","""","""","""","""","""","""","""","""","""","""","""","2021-08-13 22:30:13",189.218.23.19,"Mozilla/5.0 (Macintosh; Intel Mac OS X 10_15_7) AppleWebKit/537.36 (KHTML, like Gecko) Chrome/92.0.4515.131 Safari/537.36",Macintosh,Chrome,92.0.4515.131,"OS X",10_15_7,5f461dd6c139dd6b46c7596cbd57cd79
210,1,"""","""","""","""","""",sampler,261,400742,0.0-6.0-255.0,"""","""","""","""","""","""","""","""","""","""","""","""","2021-08-13 22:30:13",189.218.23.19,"Mozilla/5.0 (Macintosh; Intel Mac OS X 10_15_7) AppleWebKit/537.36 (KHTML, like Gecko) Chrome/92.0.4515.131 Safari/537.36",Macintosh,Chrome,92.0.4515.131,"OS X",10_15_7,5f461dd6c139dd6b46c7596cbd57cd79
210,1,"""","""","""","""","""",sampler,262,400742,0.0-6.0-256.0,"""","""","""","""","""","""","""","""","""","""","""","""","2021-08-13 22:30:13",189.218.23.19,"Mozilla/5.0 (Macintosh; Intel Mac OS X 10_15_7) AppleWebKit/537.36 (KHTML, like Gecko) Chrome/92.0.4515.131 Safari/537.36",Macintosh,Chrome,92.0.4515.131,"OS X",10_15_7,5f461dd6c139dd6b46c7596cbd57cd79
210,1,"""","""","""","""","""",sampler,263,400742,0.0-6.0-257.0,"""","""","""","""","""","""","""","""","""","""","""","""","2021-08-13 22:30:13",189.218.23.19,"Mozilla/5.0 (Macintosh; Intel Mac OS X 10_15_7) AppleWebKit/537.36 (KHTML, like Gecko) Chrome/92.0.4515.131 Safari/537.36",Macintosh,Chrome,92.0.4515.131,"OS X",10_15_7,5f461dd6c139dd6b46c7596cbd57cd79
210,1,"""","""","""","""","""",sampler,264,400743,0.0-6.0-258.0,"""","""","""","""","""","""","""","""","""","""","""","""","2021-08-13 22:30:13",189.218.23.19,"Mozilla/5.0 (Macintosh; Intel Mac OS X 10_15_7) AppleWebKit/537.36 (KHTML, like Gecko) Chrome/92.0.4515.131 Safari/537.36",Macintosh,Chrome,92.0.4515.131,"OS X",10_15_7,5f461dd6c139dd6b46c7596cbd57cd79
210,1,"""","""","""","""","""",sampler,265,400743,0.0-6.0-259.0,"""","""","""","""","""","""","""","""","""","""","""","""","2021-08-13 22:30:13",189.218.23.19,"Mozilla/5.0 (Macintosh; Intel Mac OS X 10_15_7) AppleWebKit/537.36 (KHTML, like Gecko) Chrome/92.0.4515.131 Safari/537.36",Macintosh,Chrome,92.0.4515.131,"OS X",10_15_7,5f461dd6c139dd6b46c7596cbd57cd79
210,1,"""","""","""","""","""",sampler,266,400743,0.0-6.0-260.0,"""","""","""","""","""","""","""","""","""","""","""","""","2021-08-13 22:30:13",189.218.23.19,"Mozilla/5.0 (Macintosh; Intel Mac OS X 10_15_7) AppleWebKit/537.36 (KHTML, like Gecko) Chrome/92.0.4515.131 Safari/537.36",Macintosh,Chrome,92.0.4515.131,"OS X",10_15_7,5f461dd6c139dd6b46c7596cbd57cd79
210,1,"""","""","""","""","""",sampler,267,400743,0.0-6.0-261.0,"""","""","""","""","""","""","""","""","""","""","""","""","2021-08-13 22:30:13",189.218.23.19,"Mozilla/5.0 (Macintosh; Intel Mac OS X 10_15_7) AppleWebKit/537.36 (KHTML, like Gecko) Chrome/92.0.4515.131 Safari/537.36",Macintosh,Chrome,92.0.4515.131,"OS X",10_15_7,5f461dd6c139dd6b46c7596cbd57cd79
210,1,"""","""","""","""","""",sampler,268,400743,0.0-6.0-262.0,"""","""","""","""","""","""","""","""","""","""","""","""","2021-08-13 22:30:13",189.218.23.19,"Mozilla/5.0 (Macintosh; Intel Mac OS X 10_15_7) AppleWebKit/537.36 (KHTML, like Gecko) Chrome/92.0.4515.131 Safari/537.36",Macintosh,Chrome,92.0.4515.131,"OS X",10_15_7,5f461dd6c139dd6b46c7596cbd57cd79
210,1,"""","""","""","""","""",sampler,269,400743,0.0-6.0-263.0,"""","""","""","""","""","""","""","""","""","""","""","""","2021-08-13 22:30:13",189.218.23.19,"Mozilla/5.0 (Macintosh; Intel Mac OS X 10_15_7) AppleWebKit/537.36 (KHTML, like Gecko) Chrome/92.0.4515.131 Safari/537.36",Macintosh,Chrome,92.0.4515.131,"OS X",10_15_7,5f461dd6c139dd6b46c7596cbd57cd79
210,1,"""","""","""","""","""",sampler,270,400743,0.0-6.0-264.0,"""","""","""","""","""","""","""","""","""","""","""","""","2021-08-13 22:30:13",189.218.23.19,"Mozilla/5.0 (Macintosh; Intel Mac OS X 10_15_7) AppleWebKit/537.36 (KHTML, like Gecko) Chrome/92.0.4515.131 Safari/537.36",Macintosh,Chrome,92.0.4515.131,"OS X",10_15_7,5f461dd6c139dd6b46c7596cbd57cd79
210,1,"""","""","""","""","""",sampler,271,400744,0.0-6.0-265.0,"""","""","""","""","""","""","""","""","""","""","""","""","2021-08-13 22:30:13",189.218.23.19,"Mozilla/5.0 (Macintosh; Intel Mac OS X 10_15_7) AppleWebKit/537.36 (KHTML, like Gecko) Chrome/92.0.4515.131 Safari/537.36",Macintosh,Chrome,92.0.4515.131,"OS X",10_15_7,5f461dd6c139dd6b46c7596cbd57cd79
