run_id,condition,success,timeout,failed_images,failed_audio,failed_video,trial_type,trial_index,time_elapsed,internal_node_id,rt,stimulus,key_press,responses,view_history,correct,image_click,points,sd,points2,total_earn,button_pressed,recorded_at,ip,user_agent,device,browser,browser_version,platform,platform_version,source_code_version
225,1,true,false,"""","""","""",preload,0,582,0.0-0.0,"""","""","""","""","""","""","""","""","""","""","""","""","2021-08-17 18:03:58",37.47.61.64,"Mozilla/5.0 (Windows NT 10.0; Win64; x64; rv:91.0) Gecko/20100101 Firefox/91.0",,Firefox,91.0,Windows,10.0,5f461dd6c139dd6b46c7596cbd57cd79
225,1,"""","""","""","""","""",html-keyboard-response,1,2268,0.0-1.0,1678,"<font size=15>Welcome to our experiment!</font><br><br><br><i> Press <b>space bar</b> to begin.</i>",32,"""","""","""","""","""","""","""","""","""","2021-08-17 18:03:58",37.47.61.64,"Mozilla/5.0 (Windows NT 10.0; Win64; x64; rv:91.0) Gecko/20100101 Firefox/91.0",,Firefox,91.0,Windows,10.0,5f461dd6c139dd6b46c7596cbd57cd79
225,1,"""","""","""","""","""",survey-multi-choice,2,12463,0.0-2.0,10191,"""","""","{""Q0"":""Yes"",""Q1"":""Yes"",""Q2"":""Yes"",""Q3"":""Yes""}","""","""","""","""","""","""","""","""","2021-08-17 18:03:58",37.47.61.64,"Mozilla/5.0 (Windows NT 10.0; Win64; x64; rv:91.0) Gecko/20100101 Firefox/91.0",,Firefox,91.0,Windows,10.0,5f461dd6c139dd6b46c7596cbd57cd79
225,1,"""","""","""","""","""",survey-html-form,3,30129,0.0-3.0,17660,"""","""","{""gender"":""male"",""age"":""19"",""hand"":""right"",""mail"":""5f1eba6ba65ce801eaaeb562""}","""","""","""","""","""","""","""","""","2021-08-17 18:03:58",37.47.61.64,"Mozilla/5.0 (Windows NT 10.0; Win64; x64; rv:91.0) Gecko/20100101 Firefox/91.0",,Firefox,91.0,Windows,10.0,5f461dd6c139dd6b46c7596cbd57cd79
225,1,true,"""","""","""","""",fullscreen,4,34706,0.0-4.0,"""","""","""","""","""","""","""","""","""","""","""","""","2021-08-17 18:03:58",37.47.61.64,"Mozilla/5.0 (Windows NT 10.0; Win64; x64; rv:91.0) Gecko/20100101 Firefox/91.0",,Firefox,91.0,Windows,10.0,5f461dd6c139dd6b46c7596cbd57cd79
225,1,"""","""","""","""","""",multikey-instructions,5,173059,0.0-5.0,138346,"""","""","""","[{""page_index"":0,""viewing_time"":24928},{""page_index"":1,""viewing_time"":23950},{""page_index"":2,""viewing_time"":10567},{""page_index"":3,""viewing_time"":10760},{""page_index"":4,""viewing_time"":9892},{""page_index"":5,""viewing_time"":7101},{""page_index"":6,""viewing_time"":4596},{""page_index"":7,""viewing_time"":2140},{""page_index"":8,""viewing_time"":15831},{""page_index"":9,""viewing_time"":10303},{""page_index"":10,""viewing_time"":10373},{""page_index"":11,""viewing_time"":7904}]","""","""","""","""","""","""","""","2021-08-17 18:03:58",37.47.61.64,"Mozilla/5.0 (Windows NT 10.0; Win64; x64; rv:91.0) Gecko/20100101 Firefox/91.0",,Firefox,91.0,Windows,10.0,5f461dd6c139dd6b46c7596cbd57cd79
225,1,"""","""","""","""","""",sampler,6,181045,0.0-6.0-0.0,7562,img/Cyan.png,"""","""","""",false,-1,8.482662522860236,5,"""","""","""","2021-08-17 18:03:58",37.47.61.64,"Mozilla/5.0 (Windows NT 10.0; Win64; x64; rv:91.0) Gecko/20100101 Firefox/91.0",,Firefox,91.0,Windows,10.0,5f461dd6c139dd6b46c7596cbd57cd79
225,1,"""","""","""","""","""",sampler,7,182126,0.0-6.0-1.0,658,img/Cyan.png,"""","""","""",false,-1,1.7941447601871667,5,"""","""","""","2021-08-17 18:03:58",37.47.61.64,"Mozilla/5.0 (Windows NT 10.0; Win64; x64; rv:91.0) Gecko/20100101 Firefox/91.0",,Firefox,91.0,Windows,10.0,5f461dd6c139dd6b46c7596cbd57cd79
225,1,"""","""","""","""","""",sampler,8,182965,0.0-6.0-2.0,427,img/Cyan.png,"""","""","""",false,-1,-4.727571917205601,5,"""","""","""","2021-08-17 18:03:58",37.47.61.64,"Mozilla/5.0 (Windows NT 10.0; Win64; x64; rv:91.0) Gecko/20100101 Firefox/91.0",,Firefox,91.0,Windows,10.0,5f461dd6c139dd6b46c7596cbd57cd79
225,1,"""","""","""","""","""",sampler,9,183767,0.0-6.0-3.0,379,img/Cyan.png,"""","""","""",false,-1,8.127851961807327,5,"""","""","""","2021-08-17 18:03:58",37.47.61.64,"Mozilla/5.0 (Windows NT 10.0; Win64; x64; rv:91.0) Gecko/20100101 Firefox/91.0",,Firefox,91.0,Windows,10.0,5f461dd6c139dd6b46c7596cbd57cd79
225,1,"""","""","""","""","""",sampler,10,184506,0.0-6.0-4.0,321,img/Cyan.png,"""","""","""",false,-1,5.155383776620201,5,"""","""","""","2021-08-17 18:03:58",37.47.61.64,"Mozilla/5.0 (Windows NT 10.0; Win64; x64; rv:91.0) Gecko/20100101 Firefox/91.0",,Firefox,91.0,Windows,10.0,5f461dd6c139dd6b46c7596cbd57cd79
225,1,"""","""","""","""","""",sampler,11,185067,0.0-6.0-5.0,146,img/Cyan.png,"""","""","""",false,-1,7.1538095660192,5,"""","""","""","2021-08-17 18:03:58",37.47.61.64,"Mozilla/5.0 (Windows NT 10.0; Win64; x64; rv:91.0) Gecko/20100101 Firefox/91.0",,Firefox,91.0,Windows,10.0,5f461dd6c139dd6b46c7596cbd57cd79
225,1,"""","""","""","""","""",sampler,12,185685,0.0-6.0-6.0,200,img/Cyan.png,"""","""","""",false,-1,0.43966796420290066,5,"""","""","""","2021-08-17 18:03:58",37.47.61.64,"Mozilla/5.0 (Windows NT 10.0; Win64; x64; rv:91.0) Gecko/20100101 Firefox/91.0",,Firefox,91.0,Windows,10.0,5f461dd6c139dd6b46c7596cbd57cd79
225,1,"""","""","""","""","""",sampler,13,186326,0.0-6.0-7.0,221,img/Cyan.png,"""","""","""",false,-1,4.9922117869982445,5,"""","""","""","2021-08-17 18:03:58",37.47.61.64,"Mozilla/5.0 (Windows NT 10.0; Win64; x64; rv:91.0) Gecko/20100101 Firefox/91.0",,Firefox,91.0,Windows,10.0,5f461dd6c139dd6b46c7596cbd57cd79
225,1,"""","""","""","""","""",sampler,14,186907,0.0-6.0-8.0,158,img/Cyan.png,"""","""","""",false,-1,9.245033265677577,5,"""","""","""","2021-08-17 18:03:58",37.47.61.64,"Mozilla/5.0 (Windows NT 10.0; Win64; x64; rv:91.0) Gecko/20100101 Firefox/91.0",,Firefox,91.0,Windows,10.0,5f461dd6c139dd6b46c7596cbd57cd79
225,1,"""","""","""","""","""",sampler,15,187507,0.0-6.0-9.0,193,img/Cyan.png,"""","""","""",false,-1,10.904503165808254,5,"""","""","""","2021-08-17 18:03:58",37.47.61.64,"Mozilla/5.0 (Windows NT 10.0; Win64; x64; rv:91.0) Gecko/20100101 Firefox/91.0",,Firefox,91.0,Windows,10.0,5f461dd6c139dd6b46c7596cbd57cd79
225,1,"""","""","""","""","""",sampler,16,188106,0.0-6.0-10.0,176,img/Cyan.png,"""","""","""",false,-1,-6.552112934152547,5,"""","""","""","2021-08-17 18:03:58",37.47.61.64,"Mozilla/5.0 (Windows NT 10.0; Win64; x64; rv:91.0) Gecko/20100101 Firefox/91.0",,Firefox,91.0,Windows,10.0,5f461dd6c139dd6b46c7596cbd57cd79
225,1,"""","""","""","""","""",sampler,17,188686,0.0-6.0-11.0,169,img/Cyan.png,"""","""","""",false,-1,-1.2935361242321148,5,"""","""","""","2021-08-17 18:03:58",37.47.61.64,"Mozilla/5.0 (Windows NT 10.0; Win64; x64; rv:91.0) Gecko/20100101 Firefox/91.0",,Firefox,91.0,Windows,10.0,5f461dd6c139dd6b46c7596cbd57cd79
225,1,"""","""","""","""","""",sampler,18,189246,0.0-6.0-12.0,150,img/Cyan.png,"""","""","""",false,-1,13.468756407201967,5,"""","""","""","2021-08-17 18:03:58",37.47.61.64,"Mozilla/5.0 (Windows NT 10.0; Win64; x64; rv:91.0) Gecko/20100101 Firefox/91.0",,Firefox,91.0,Windows,10.0,5f461dd6c139dd6b46c7596cbd57cd79
225,1,"""","""","""","""","""",sampler,19,189846,0.0-6.0-13.0,181,img/Cyan.png,"""","""","""",false,-1,8.271400665372457,5,"""","""","""","2021-08-17 18:03:58",37.47.61.64,"Mozilla/5.0 (Windows NT 10.0; Win64; x64; rv:91.0) Gecko/20100101 Firefox/91.0",,Firefox,91.0,Windows,10.0,5f461dd6c139dd6b46c7596cbd57cd79
225,1,"""","""","""","""","""",sampler,20,190366,0.0-6.0-14.0,99,img/Cyan.png,"""","""","""",false,-1,0.2368569316092266,5,"""","""","""","2021-08-17 18:03:58",37.47.61.64,"Mozilla/5.0 (Windows NT 10.0; Win64; x64; rv:91.0) Gecko/20100101 Firefox/91.0",,Firefox,91.0,Windows,10.0,5f461dd6c139dd6b46c7596cbd57cd79
225,1,"""","""","""","""","""",sampler,21,194366,0.0-6.0-15.0,3590,img/Cyan.png,"""","""","""",false,-1,7.3156298472470525,5,"""","""","""","2021-08-17 18:03:58",37.47.61.64,"Mozilla/5.0 (Windows NT 10.0; Win64; x64; rv:91.0) Gecko/20100101 Firefox/91.0",,Firefox,91.0,Windows,10.0,5f461dd6c139dd6b46c7596cbd57cd79
225,1,"""","""","""","""","""",sampler,22,194371,0.0-6.0-16.0,"""","""","""","""","""","""","""","""","""","""","""","""","2021-08-17 18:03:58",37.47.61.64,"Mozilla/5.0 (Windows NT 10.0; Win64; x64; rv:91.0) Gecko/20100101 Firefox/91.0",,Firefox,91.0,Windows,10.0,5f461dd6c139dd6b46c7596cbd57cd79
225,1,"""","""","""","""","""",sampler,23,194371,0.0-6.0-17.0,"""","""","""","""","""","""","""","""","""","""","""","""","2021-08-17 18:03:58",37.47.61.64,"Mozilla/5.0 (Windows NT 10.0; Win64; x64; rv:91.0) Gecko/20100101 Firefox/91.0",,Firefox,91.0,Windows,10.0,5f461dd6c139dd6b46c7596cbd57cd79
225,1,"""","""","""","""","""",sampler,24,194372,0.0-6.0-18.0,"""","""","""","""","""","""","""","""","""","""","""","""","2021-08-17 18:03:58",37.47.61.64,"Mozilla/5.0 (Windows NT 10.0; Win64; x64; rv:91.0) Gecko/20100101 Firefox/91.0",,Firefox,91.0,Windows,10.0,5f461dd6c139dd6b46c7596cbd57cd79
225,1,"""","""","""","""","""",sampler,25,194372,0.0-6.0-19.0,"""","""","""","""","""","""","""","""","""","""","""","""","2021-08-17 18:03:58",37.47.61.64,"Mozilla/5.0 (Windows NT 10.0; Win64; x64; rv:91.0) Gecko/20100101 Firefox/91.0",,Firefox,91.0,Windows,10.0,5f461dd6c139dd6b46c7596cbd57cd79
225,1,"""","""","""","""","""",sampler,26,194372,0.0-6.0-20.0,"""","""","""","""","""","""","""","""","""","""","""","""","2021-08-17 18:03:58",37.47.61.64,"Mozilla/5.0 (Windows NT 10.0; Win64; x64; rv:91.0) Gecko/20100101 Firefox/91.0",,Firefox,91.0,Windows,10.0,5f461dd6c139dd6b46c7596cbd57cd79
225,1,"""","""","""","""","""",sampler,27,194372,0.0-6.0-21.0,"""","""","""","""","""","""","""","""","""","""","""","""","2021-08-17 18:03:58",37.47.61.64,"Mozilla/5.0 (Windows NT 10.0; Win64; x64; rv:91.0) Gecko/20100101 Firefox/91.0",,Firefox,91.0,Windows,10.0,5f461dd6c139dd6b46c7596cbd57cd79
225,1,"""","""","""","""","""",sampler,28,194372,0.0-6.0-22.0,"""","""","""","""","""","""","""","""","""","""","""","""","2021-08-17 18:03:58",37.47.61.64,"Mozilla/5.0 (Windows NT 10.0; Win64; x64; rv:91.0) Gecko/20100101 Firefox/91.0",,Firefox,91.0,Windows,10.0,5f461dd6c139dd6b46c7596cbd57cd79
225,1,"""","""","""","""","""",sampler,29,194372,0.0-6.0-23.0,"""","""","""","""","""","""","""","""","""","""","""","""","2021-08-17 18:03:58",37.47.61.64,"Mozilla/5.0 (Windows NT 10.0; Win64; x64; rv:91.0) Gecko/20100101 Firefox/91.0",,Firefox,91.0,Windows,10.0,5f461dd6c139dd6b46c7596cbd57cd79
225,1,"""","""","""","""","""",sampler,30,194372,0.0-6.0-24.0,"""","""","""","""","""","""","""","""","""","""","""","""","2021-08-17 18:03:58",37.47.61.64,"Mozilla/5.0 (Windows NT 10.0; Win64; x64; rv:91.0) Gecko/20100101 Firefox/91.0",,Firefox,91.0,Windows,10.0,5f461dd6c139dd6b46c7596cbd57cd79
225,1,"""","""","""","""","""",sampler,31,194372,0.0-6.0-25.0,"""","""","""","""","""","""","""","""","""","""","""","""","2021-08-17 18:03:58",37.47.61.64,"Mozilla/5.0 (Windows NT 10.0; Win64; x64; rv:91.0) Gecko/20100101 Firefox/91.0",,Firefox,91.0,Windows,10.0,5f461dd6c139dd6b46c7596cbd57cd79
225,1,"""","""","""","""","""",sampler,32,194372,0.0-6.0-26.0,"""","""","""","""","""","""","""","""","""","""","""","""","2021-08-17 18:03:58",37.47.61.64,"Mozilla/5.0 (Windows NT 10.0; Win64; x64; rv:91.0) Gecko/20100101 Firefox/91.0",,Firefox,91.0,Windows,10.0,5f461dd6c139dd6b46c7596cbd57cd79
225,1,"""","""","""","""","""",sampler,33,194373,0.0-6.0-27.0,"""","""","""","""","""","""","""","""","""","""","""","""","2021-08-17 18:03:58",37.47.61.64,"Mozilla/5.0 (Windows NT 10.0; Win64; x64; rv:91.0) Gecko/20100101 Firefox/91.0",,Firefox,91.0,Windows,10.0,5f461dd6c139dd6b46c7596cbd57cd79
225,1,"""","""","""","""","""",sampler,34,194373,0.0-6.0-28.0,"""","""","""","""","""","""","""","""","""","""","""","""","2021-08-17 18:03:58",37.47.61.64,"Mozilla/5.0 (Windows NT 10.0; Win64; x64; rv:91.0) Gecko/20100101 Firefox/91.0",,Firefox,91.0,Windows,10.0,5f461dd6c139dd6b46c7596cbd57cd79
225,1,"""","""","""","""","""",sampler,35,194373,0.0-6.0-29.0,"""","""","""","""","""","""","""","""","""","""","""","""","2021-08-17 18:03:58",37.47.61.64,"Mozilla/5.0 (Windows NT 10.0; Win64; x64; rv:91.0) Gecko/20100101 Firefox/91.0",,Firefox,91.0,Windows,10.0,5f461dd6c139dd6b46c7596cbd57cd79
225,1,"""","""","""","""","""",sampler,36,194373,0.0-6.0-30.0,"""","""","""","""","""","""","""","""","""","""","""","""","2021-08-17 18:03:58",37.47.61.64,"Mozilla/5.0 (Windows NT 10.0; Win64; x64; rv:91.0) Gecko/20100101 Firefox/91.0",,Firefox,91.0,Windows,10.0,5f461dd6c139dd6b46c7596cbd57cd79
225,1,"""","""","""","""","""",sampler,37,194373,0.0-6.0-31.0,"""","""","""","""","""","""","""","""","""","""","""","""","2021-08-17 18:03:58",37.47.61.64,"Mozilla/5.0 (Windows NT 10.0; Win64; x64; rv:91.0) Gecko/20100101 Firefox/91.0",,Firefox,91.0,Windows,10.0,5f461dd6c139dd6b46c7596cbd57cd79
225,1,"""","""","""","""","""",sampler,38,194373,0.0-6.0-32.0,"""","""","""","""","""","""","""","""","""","""","""","""","2021-08-17 18:03:58",37.47.61.64,"Mozilla/5.0 (Windows NT 10.0; Win64; x64; rv:91.0) Gecko/20100101 Firefox/91.0",,Firefox,91.0,Windows,10.0,5f461dd6c139dd6b46c7596cbd57cd79
225,1,"""","""","""","""","""",sampler,39,194373,0.0-6.0-33.0,"""","""","""","""","""","""","""","""","""","""","""","""","2021-08-17 18:03:58",37.47.61.64,"Mozilla/5.0 (Windows NT 10.0; Win64; x64; rv:91.0) Gecko/20100101 Firefox/91.0",,Firefox,91.0,Windows,10.0,5f461dd6c139dd6b46c7596cbd57cd79
225,1,"""","""","""","""","""",sampler,40,194373,0.0-6.0-34.0,"""","""","""","""","""","""","""","""","""","""","""","""","2021-08-17 18:03:58",37.47.61.64,"Mozilla/5.0 (Windows NT 10.0; Win64; x64; rv:91.0) Gecko/20100101 Firefox/91.0",,Firefox,91.0,Windows,10.0,5f461dd6c139dd6b46c7596cbd57cd79
225,1,"""","""","""","""","""",sampler,41,194373,0.0-6.0-35.0,"""","""","""","""","""","""","""","""","""","""","""","""","2021-08-17 18:03:58",37.47.61.64,"Mozilla/5.0 (Windows NT 10.0; Win64; x64; rv:91.0) Gecko/20100101 Firefox/91.0",,Firefox,91.0,Windows,10.0,5f461dd6c139dd6b46c7596cbd57cd79
225,1,"""","""","""","""","""",sampler,42,194374,0.0-6.0-36.0,"""","""","""","""","""","""","""","""","""","""","""","""","2021-08-17 18:03:58",37.47.61.64,"Mozilla/5.0 (Windows NT 10.0; Win64; x64; rv:91.0) Gecko/20100101 Firefox/91.0",,Firefox,91.0,Windows,10.0,5f461dd6c139dd6b46c7596cbd57cd79
225,1,"""","""","""","""","""",sampler,43,194374,0.0-6.0-37.0,"""","""","""","""","""","""","""","""","""","""","""","""","2021-08-17 18:03:58",37.47.61.64,"Mozilla/5.0 (Windows NT 10.0; Win64; x64; rv:91.0) Gecko/20100101 Firefox/91.0",,Firefox,91.0,Windows,10.0,5f461dd6c139dd6b46c7596cbd57cd79
225,1,"""","""","""","""","""",sampler,44,194374,0.0-6.0-38.0,"""","""","""","""","""","""","""","""","""","""","""","""","2021-08-17 18:03:58",37.47.61.64,"Mozilla/5.0 (Windows NT 10.0; Win64; x64; rv:91.0) Gecko/20100101 Firefox/91.0",,Firefox,91.0,Windows,10.0,5f461dd6c139dd6b46c7596cbd57cd79
225,1,"""","""","""","""","""",sampler,45,194374,0.0-6.0-39.0,"""","""","""","""","""","""","""","""","""","""","""","""","2021-08-17 18:03:58",37.47.61.64,"Mozilla/5.0 (Windows NT 10.0; Win64; x64; rv:91.0) Gecko/20100101 Firefox/91.0",,Firefox,91.0,Windows,10.0,5f461dd6c139dd6b46c7596cbd57cd79
225,1,"""","""","""","""","""",sampler,46,194374,0.0-6.0-40.0,"""","""","""","""","""","""","""","""","""","""","""","""","2021-08-17 18:03:58",37.47.61.64,"Mozilla/5.0 (Windows NT 10.0; Win64; x64; rv:91.0) Gecko/20100101 Firefox/91.0",,Firefox,91.0,Windows,10.0,5f461dd6c139dd6b46c7596cbd57cd79
225,1,"""","""","""","""","""",sampler,47,194374,0.0-6.0-41.0,"""","""","""","""","""","""","""","""","""","""","""","""","2021-08-17 18:03:58",37.47.61.64,"Mozilla/5.0 (Windows NT 10.0; Win64; x64; rv:91.0) Gecko/20100101 Firefox/91.0",,Firefox,91.0,Windows,10.0,5f461dd6c139dd6b46c7596cbd57cd79
225,1,"""","""","""","""","""",sampler,48,194374,0.0-6.0-42.0,"""","""","""","""","""","""","""","""","""","""","""","""","2021-08-17 18:03:58",37.47.61.64,"Mozilla/5.0 (Windows NT 10.0; Win64; x64; rv:91.0) Gecko/20100101 Firefox/91.0",,Firefox,91.0,Windows,10.0,5f461dd6c139dd6b46c7596cbd57cd79
225,1,"""","""","""","""","""",sampler,49,194374,0.0-6.0-43.0,"""","""","""","""","""","""","""","""","""","""","""","""","2021-08-17 18:03:58",37.47.61.64,"Mozilla/5.0 (Windows NT 10.0; Win64; x64; rv:91.0) Gecko/20100101 Firefox/91.0",,Firefox,91.0,Windows,10.0,5f461dd6c139dd6b46c7596cbd57cd79
225,1,"""","""","""","""","""",sampler,50,194375,0.0-6.0-44.0,"""","""","""","""","""","""","""","""","""","""","""","""","2021-08-17 18:03:58",37.47.61.64,"Mozilla/5.0 (Windows NT 10.0; Win64; x64; rv:91.0) Gecko/20100101 Firefox/91.0",,Firefox,91.0,Windows,10.0,5f461dd6c139dd6b46c7596cbd57cd79
225,1,"""","""","""","""","""",sampler,51,194375,0.0-6.0-45.0,"""","""","""","""","""","""","""","""","""","""","""","""","2021-08-17 18:03:58",37.47.61.64,"Mozilla/5.0 (Windows NT 10.0; Win64; x64; rv:91.0) Gecko/20100101 Firefox/91.0",,Firefox,91.0,Windows,10.0,5f461dd6c139dd6b46c7596cbd57cd79
225,1,"""","""","""","""","""",sampler,52,194375,0.0-6.0-46.0,"""","""","""","""","""","""","""","""","""","""","""","""","2021-08-17 18:03:58",37.47.61.64,"Mozilla/5.0 (Windows NT 10.0; Win64; x64; rv:91.0) Gecko/20100101 Firefox/91.0",,Firefox,91.0,Windows,10.0,5f461dd6c139dd6b46c7596cbd57cd79
225,1,"""","""","""","""","""",sampler,53,194375,0.0-6.0-47.0,"""","""","""","""","""","""","""","""","""","""","""","""","2021-08-17 18:03:58",37.47.61.64,"Mozilla/5.0 (Windows NT 10.0; Win64; x64; rv:91.0) Gecko/20100101 Firefox/91.0",,Firefox,91.0,Windows,10.0,5f461dd6c139dd6b46c7596cbd57cd79
225,1,"""","""","""","""","""",sampler,54,194375,0.0-6.0-48.0,"""","""","""","""","""","""","""","""","""","""","""","""","2021-08-17 18:03:58",37.47.61.64,"Mozilla/5.0 (Windows NT 10.0; Win64; x64; rv:91.0) Gecko/20100101 Firefox/91.0",,Firefox,91.0,Windows,10.0,5f461dd6c139dd6b46c7596cbd57cd79
225,1,"""","""","""","""","""",sampler,55,194375,0.0-6.0-49.0,"""","""","""","""","""","""","""","""","""","""","""","""","2021-08-17 18:03:58",37.47.61.64,"Mozilla/5.0 (Windows NT 10.0; Win64; x64; rv:91.0) Gecko/20100101 Firefox/91.0",,Firefox,91.0,Windows,10.0,5f461dd6c139dd6b46c7596cbd57cd79
225,1,"""","""","""","""","""",sampler,56,194375,0.0-6.0-50.0,"""","""","""","""","""","""","""","""","""","""","""","""","2021-08-17 18:03:58",37.47.61.64,"Mozilla/5.0 (Windows NT 10.0; Win64; x64; rv:91.0) Gecko/20100101 Firefox/91.0",,Firefox,91.0,Windows,10.0,5f461dd6c139dd6b46c7596cbd57cd79
225,1,"""","""","""","""","""",sampler,57,194375,0.0-6.0-51.0,"""","""","""","""","""","""","""","""","""","""","""","""","2021-08-17 18:03:58",37.47.61.64,"Mozilla/5.0 (Windows NT 10.0; Win64; x64; rv:91.0) Gecko/20100101 Firefox/91.0",,Firefox,91.0,Windows,10.0,5f461dd6c139dd6b46c7596cbd57cd79
225,1,"""","""","""","""","""",sampler,58,194375,0.0-6.0-52.0,"""","""","""","""","""","""","""","""","""","""","""","""","2021-08-17 18:03:58",37.47.61.64,"Mozilla/5.0 (Windows NT 10.0; Win64; x64; rv:91.0) Gecko/20100101 Firefox/91.0",,Firefox,91.0,Windows,10.0,5f461dd6c139dd6b46c7596cbd57cd79
225,1,"""","""","""","""","""",sampler,59,194375,0.0-6.0-53.0,"""","""","""","""","""","""","""","""","""","""","""","""","2021-08-17 18:03:58",37.47.61.64,"Mozilla/5.0 (Windows NT 10.0; Win64; x64; rv:91.0) Gecko/20100101 Firefox/91.0",,Firefox,91.0,Windows,10.0,5f461dd6c139dd6b46c7596cbd57cd79
225,1,"""","""","""","""","""",sampler,60,194375,0.0-6.0-54.0,"""","""","""","""","""","""","""","""","""","""","""","""","2021-08-17 18:03:58",37.47.61.64,"Mozilla/5.0 (Windows NT 10.0; Win64; x64; rv:91.0) Gecko/20100101 Firefox/91.0",,Firefox,91.0,Windows,10.0,5f461dd6c139dd6b46c7596cbd57cd79
225,1,"""","""","""","""","""",sampler,61,194376,0.0-6.0-55.0,"""","""","""","""","""","""","""","""","""","""","""","""","2021-08-17 18:03:58",37.47.61.64,"Mozilla/5.0 (Windows NT 10.0; Win64; x64; rv:91.0) Gecko/20100101 Firefox/91.0",,Firefox,91.0,Windows,10.0,5f461dd6c139dd6b46c7596cbd57cd79
225,1,"""","""","""","""","""",sampler,62,194376,0.0-6.0-56.0,"""","""","""","""","""","""","""","""","""","""","""","""","2021-08-17 18:03:58",37.47.61.64,"Mozilla/5.0 (Windows NT 10.0; Win64; x64; rv:91.0) Gecko/20100101 Firefox/91.0",,Firefox,91.0,Windows,10.0,5f461dd6c139dd6b46c7596cbd57cd79
225,1,"""","""","""","""","""",sampler,63,194376,0.0-6.0-57.0,"""","""","""","""","""","""","""","""","""","""","""","""","2021-08-17 18:03:58",37.47.61.64,"Mozilla/5.0 (Windows NT 10.0; Win64; x64; rv:91.0) Gecko/20100101 Firefox/91.0",,Firefox,91.0,Windows,10.0,5f461dd6c139dd6b46c7596cbd57cd79
225,1,"""","""","""","""","""",sampler,64,194376,0.0-6.0-58.0,"""","""","""","""","""","""","""","""","""","""","""","""","2021-08-17 18:03:58",37.47.61.64,"Mozilla/5.0 (Windows NT 10.0; Win64; x64; rv:91.0) Gecko/20100101 Firefox/91.0",,Firefox,91.0,Windows,10.0,5f461dd6c139dd6b46c7596cbd57cd79
225,1,"""","""","""","""","""",sampler,65,194376,0.0-6.0-59.0,"""","""","""","""","""","""","""","""","""","""","""","""","2021-08-17 18:03:58",37.47.61.64,"Mozilla/5.0 (Windows NT 10.0; Win64; x64; rv:91.0) Gecko/20100101 Firefox/91.0",,Firefox,91.0,Windows,10.0,5f461dd6c139dd6b46c7596cbd57cd79
225,1,"""","""","""","""","""",sampler,66,194376,0.0-6.0-60.0,"""","""","""","""","""","""","""","""","""","""","""","""","2021-08-17 18:03:58",37.47.61.64,"Mozilla/5.0 (Windows NT 10.0; Win64; x64; rv:91.0) Gecko/20100101 Firefox/91.0",,Firefox,91.0,Windows,10.0,5f461dd6c139dd6b46c7596cbd57cd79
225,1,"""","""","""","""","""",sampler,67,194376,0.0-6.0-61.0,"""","""","""","""","""","""","""","""","""","""","""","""","2021-08-17 18:03:58",37.47.61.64,"Mozilla/5.0 (Windows NT 10.0; Win64; x64; rv:91.0) Gecko/20100101 Firefox/91.0",,Firefox,91.0,Windows,10.0,5f461dd6c139dd6b46c7596cbd57cd79
225,1,"""","""","""","""","""",sampler,68,194376,0.0-6.0-62.0,"""","""","""","""","""","""","""","""","""","""","""","""","2021-08-17 18:03:58",37.47.61.64,"Mozilla/5.0 (Windows NT 10.0; Win64; x64; rv:91.0) Gecko/20100101 Firefox/91.0",,Firefox,91.0,Windows,10.0,5f461dd6c139dd6b46c7596cbd57cd79
225,1,"""","""","""","""","""",sampler,69,194376,0.0-6.0-63.0,"""","""","""","""","""","""","""","""","""","""","""","""","2021-08-17 18:03:58",37.47.61.64,"Mozilla/5.0 (Windows NT 10.0; Win64; x64; rv:91.0) Gecko/20100101 Firefox/91.0",,Firefox,91.0,Windows,10.0,5f461dd6c139dd6b46c7596cbd57cd79
225,1,"""","""","""","""","""",sampler,70,194377,0.0-6.0-64.0,"""","""","""","""","""","""","""","""","""","""","""","""","2021-08-17 18:03:58",37.47.61.64,"Mozilla/5.0 (Windows NT 10.0; Win64; x64; rv:91.0) Gecko/20100101 Firefox/91.0",,Firefox,91.0,Windows,10.0,5f461dd6c139dd6b46c7596cbd57cd79
225,1,"""","""","""","""","""",sampler,71,194377,0.0-6.0-65.0,"""","""","""","""","""","""","""","""","""","""","""","""","2021-08-17 18:03:58",37.47.61.64,"Mozilla/5.0 (Windows NT 10.0; Win64; x64; rv:91.0) Gecko/20100101 Firefox/91.0",,Firefox,91.0,Windows,10.0,5f461dd6c139dd6b46c7596cbd57cd79
225,1,"""","""","""","""","""",sampler,72,194377,0.0-6.0-66.0,"""","""","""","""","""","""","""","""","""","""","""","""","2021-08-17 18:03:58",37.47.61.64,"Mozilla/5.0 (Windows NT 10.0; Win64; x64; rv:91.0) Gecko/20100101 Firefox/91.0",,Firefox,91.0,Windows,10.0,5f461dd6c139dd6b46c7596cbd57cd79
225,1,"""","""","""","""","""",sampler,73,194377,0.0-6.0-67.0,"""","""","""","""","""","""","""","""","""","""","""","""","2021-08-17 18:03:58",37.47.61.64,"Mozilla/5.0 (Windows NT 10.0; Win64; x64; rv:91.0) Gecko/20100101 Firefox/91.0",,Firefox,91.0,Windows,10.0,5f461dd6c139dd6b46c7596cbd57cd79
225,1,"""","""","""","""","""",sampler,74,194377,0.0-6.0-68.0,"""","""","""","""","""","""","""","""","""","""","""","""","2021-08-17 18:03:58",37.47.61.64,"Mozilla/5.0 (Windows NT 10.0; Win64; x64; rv:91.0) Gecko/20100101 Firefox/91.0",,Firefox,91.0,Windows,10.0,5f461dd6c139dd6b46c7596cbd57cd79
225,1,"""","""","""","""","""",sampler,75,194378,0.0-6.0-69.0,"""","""","""","""","""","""","""","""","""","""","""","""","2021-08-17 18:03:58",37.47.61.64,"Mozilla/5.0 (Windows NT 10.0; Win64; x64; rv:91.0) Gecko/20100101 Firefox/91.0",,Firefox,91.0,Windows,10.0,5f461dd6c139dd6b46c7596cbd57cd79
225,1,"""","""","""","""","""",sampler,76,194378,0.0-6.0-70.0,"""","""","""","""","""","""","""","""","""","""","""","""","2021-08-17 18:03:58",37.47.61.64,"Mozilla/5.0 (Windows NT 10.0; Win64; x64; rv:91.0) Gecko/20100101 Firefox/91.0",,Firefox,91.0,Windows,10.0,5f461dd6c139dd6b46c7596cbd57cd79
225,1,"""","""","""","""","""",sampler,77,194378,0.0-6.0-71.0,"""","""","""","""","""","""","""","""","""","""","""","""","2021-08-17 18:03:58",37.47.61.64,"Mozilla/5.0 (Windows NT 10.0; Win64; x64; rv:91.0) Gecko/20100101 Firefox/91.0",,Firefox,91.0,Windows,10.0,5f461dd6c139dd6b46c7596cbd57cd79
225,1,"""","""","""","""","""",sampler,78,194378,0.0-6.0-72.0,"""","""","""","""","""","""","""","""","""","""","""","""","2021-08-17 18:03:58",37.47.61.64,"Mozilla/5.0 (Windows NT 10.0; Win64; x64; rv:91.0) Gecko/20100101 Firefox/91.0",,Firefox,91.0,Windows,10.0,5f461dd6c139dd6b46c7596cbd57cd79
225,1,"""","""","""","""","""",sampler,79,194378,0.0-6.0-73.0,"""","""","""","""","""","""","""","""","""","""","""","""","2021-08-17 18:03:58",37.47.61.64,"Mozilla/5.0 (Windows NT 10.0; Win64; x64; rv:91.0) Gecko/20100101 Firefox/91.0",,Firefox,91.0,Windows,10.0,5f461dd6c139dd6b46c7596cbd57cd79
225,1,"""","""","""","""","""",sampler,80,194378,0.0-6.0-74.0,"""","""","""","""","""","""","""","""","""","""","""","""","2021-08-17 18:03:58",37.47.61.64,"Mozilla/5.0 (Windows NT 10.0; Win64; x64; rv:91.0) Gecko/20100101 Firefox/91.0",,Firefox,91.0,Windows,10.0,5f461dd6c139dd6b46c7596cbd57cd79
225,1,"""","""","""","""","""",sampler,81,194378,0.0-6.0-75.0,"""","""","""","""","""","""","""","""","""","""","""","""","2021-08-17 18:03:58",37.47.61.64,"Mozilla/5.0 (Windows NT 10.0; Win64; x64; rv:91.0) Gecko/20100101 Firefox/91.0",,Firefox,91.0,Windows,10.0,5f461dd6c139dd6b46c7596cbd57cd79
225,1,"""","""","""","""","""",sampler,82,194379,0.0-6.0-76.0,"""","""","""","""","""","""","""","""","""","""","""","""","2021-08-17 18:03:58",37.47.61.64,"Mozilla/5.0 (Windows NT 10.0; Win64; x64; rv:91.0) Gecko/20100101 Firefox/91.0",,Firefox,91.0,Windows,10.0,5f461dd6c139dd6b46c7596cbd57cd79
225,1,"""","""","""","""","""",sampler,83,194379,0.0-6.0-77.0,"""","""","""","""","""","""","""","""","""","""","""","""","2021-08-17 18:03:58",37.47.61.64,"Mozilla/5.0 (Windows NT 10.0; Win64; x64; rv:91.0) Gecko/20100101 Firefox/91.0",,Firefox,91.0,Windows,10.0,5f461dd6c139dd6b46c7596cbd57cd79
225,1,"""","""","""","""","""",sampler,84,194379,0.0-6.0-78.0,"""","""","""","""","""","""","""","""","""","""","""","""","2021-08-17 18:03:58",37.47.61.64,"Mozilla/5.0 (Windows NT 10.0; Win64; x64; rv:91.0) Gecko/20100101 Firefox/91.0",,Firefox,91.0,Windows,10.0,5f461dd6c139dd6b46c7596cbd57cd79
225,1,"""","""","""","""","""",sampler,85,194379,0.0-6.0-79.0,"""","""","""","""","""","""","""","""","""","""","""","""","2021-08-17 18:03:58",37.47.61.64,"Mozilla/5.0 (Windows NT 10.0; Win64; x64; rv:91.0) Gecko/20100101 Firefox/91.0",,Firefox,91.0,Windows,10.0,5f461dd6c139dd6b46c7596cbd57cd79
225,1,"""","""","""","""","""",sampler,86,194379,0.0-6.0-80.0,"""","""","""","""","""","""","""","""","""","""","""","""","2021-08-17 18:03:58",37.47.61.64,"Mozilla/5.0 (Windows NT 10.0; Win64; x64; rv:91.0) Gecko/20100101 Firefox/91.0",,Firefox,91.0,Windows,10.0,5f461dd6c139dd6b46c7596cbd57cd79
225,1,"""","""","""","""","""",sampler,87,194379,0.0-6.0-81.0,"""","""","""","""","""","""","""","""","""","""","""","""","2021-08-17 18:03:58",37.47.61.64,"Mozilla/5.0 (Windows NT 10.0; Win64; x64; rv:91.0) Gecko/20100101 Firefox/91.0",,Firefox,91.0,Windows,10.0,5f461dd6c139dd6b46c7596cbd57cd79
225,1,"""","""","""","""","""",sampler,88,194379,0.0-6.0-82.0,"""","""","""","""","""","""","""","""","""","""","""","""","2021-08-17 18:03:58",37.47.61.64,"Mozilla/5.0 (Windows NT 10.0; Win64; x64; rv:91.0) Gecko/20100101 Firefox/91.0",,Firefox,91.0,Windows,10.0,5f461dd6c139dd6b46c7596cbd57cd79
225,1,"""","""","""","""","""",sampler,89,194379,0.0-6.0-83.0,"""","""","""","""","""","""","""","""","""","""","""","""","2021-08-17 18:03:58",37.47.61.64,"Mozilla/5.0 (Windows NT 10.0; Win64; x64; rv:91.0) Gecko/20100101 Firefox/91.0",,Firefox,91.0,Windows,10.0,5f461dd6c139dd6b46c7596cbd57cd79
225,1,"""","""","""","""","""",sampler,90,194380,0.0-6.0-84.0,"""","""","""","""","""","""","""","""","""","""","""","""","2021-08-17 18:03:58",37.47.61.64,"Mozilla/5.0 (Windows NT 10.0; Win64; x64; rv:91.0) Gecko/20100101 Firefox/91.0",,Firefox,91.0,Windows,10.0,5f461dd6c139dd6b46c7596cbd57cd79
225,1,"""","""","""","""","""",sampler,91,194380,0.0-6.0-85.0,"""","""","""","""","""","""","""","""","""","""","""","""","2021-08-17 18:03:58",37.47.61.64,"Mozilla/5.0 (Windows NT 10.0; Win64; x64; rv:91.0) Gecko/20100101 Firefox/91.0",,Firefox,91.0,Windows,10.0,5f461dd6c139dd6b46c7596cbd57cd79
225,1,"""","""","""","""","""",sampler,92,194380,0.0-6.0-86.0,"""","""","""","""","""","""","""","""","""","""","""","""","2021-08-17 18:03:58",37.47.61.64,"Mozilla/5.0 (Windows NT 10.0; Win64; x64; rv:91.0) Gecko/20100101 Firefox/91.0",,Firefox,91.0,Windows,10.0,5f461dd6c139dd6b46c7596cbd57cd79
225,1,"""","""","""","""","""",sampler,93,194380,0.0-6.0-87.0,"""","""","""","""","""","""","""","""","""","""","""","""","2021-08-17 18:03:58",37.47.61.64,"Mozilla/5.0 (Windows NT 10.0; Win64; x64; rv:91.0) Gecko/20100101 Firefox/91.0",,Firefox,91.0,Windows,10.0,5f461dd6c139dd6b46c7596cbd57cd79
225,1,"""","""","""","""","""",sampler,94,194380,0.0-6.0-88.0,"""","""","""","""","""","""","""","""","""","""","""","""","2021-08-17 18:03:58",37.47.61.64,"Mozilla/5.0 (Windows NT 10.0; Win64; x64; rv:91.0) Gecko/20100101 Firefox/91.0",,Firefox,91.0,Windows,10.0,5f461dd6c139dd6b46c7596cbd57cd79
225,1,"""","""","""","""","""",sampler,95,194380,0.0-6.0-89.0,"""","""","""","""","""","""","""","""","""","""","""","""","2021-08-17 18:03:58",37.47.61.64,"Mozilla/5.0 (Windows NT 10.0; Win64; x64; rv:91.0) Gecko/20100101 Firefox/91.0",,Firefox,91.0,Windows,10.0,5f461dd6c139dd6b46c7596cbd57cd79
225,1,"""","""","""","""","""",sampler,96,194380,0.0-6.0-90.0,"""","""","""","""","""","""","""","""","""","""","""","""","2021-08-17 18:03:58",37.47.61.64,"Mozilla/5.0 (Windows NT 10.0; Win64; x64; rv:91.0) Gecko/20100101 Firefox/91.0",,Firefox,91.0,Windows,10.0,5f461dd6c139dd6b46c7596cbd57cd79
225,1,"""","""","""","""","""",sampler,97,194380,0.0-6.0-91.0,"""","""","""","""","""","""","""","""","""","""","""","""","2021-08-17 18:03:58",37.47.61.64,"Mozilla/5.0 (Windows NT 10.0; Win64; x64; rv:91.0) Gecko/20100101 Firefox/91.0",,Firefox,91.0,Windows,10.0,5f461dd6c139dd6b46c7596cbd57cd79
225,1,"""","""","""","""","""",sampler,98,194381,0.0-6.0-92.0,"""","""","""","""","""","""","""","""","""","""","""","""","2021-08-17 18:03:58",37.47.61.64,"Mozilla/5.0 (Windows NT 10.0; Win64; x64; rv:91.0) Gecko/20100101 Firefox/91.0",,Firefox,91.0,Windows,10.0,5f461dd6c139dd6b46c7596cbd57cd79
225,1,"""","""","""","""","""",sampler,99,194381,0.0-6.0-93.0,"""","""","""","""","""","""","""","""","""","""","""","""","2021-08-17 18:03:58",37.47.61.64,"Mozilla/5.0 (Windows NT 10.0; Win64; x64; rv:91.0) Gecko/20100101 Firefox/91.0",,Firefox,91.0,Windows,10.0,5f461dd6c139dd6b46c7596cbd57cd79
225,1,"""","""","""","""","""",sampler,100,194381,0.0-6.0-94.0,"""","""","""","""","""","""","""","""","""","""","""","""","2021-08-17 18:03:58",37.47.61.64,"Mozilla/5.0 (Windows NT 10.0; Win64; x64; rv:91.0) Gecko/20100101 Firefox/91.0",,Firefox,91.0,Windows,10.0,5f461dd6c139dd6b46c7596cbd57cd79
225,1,"""","""","""","""","""",sampler,101,194381,0.0-6.0-95.0,"""","""","""","""","""","""","""","""","""","""","""","""","2021-08-17 18:03:58",37.47.61.64,"Mozilla/5.0 (Windows NT 10.0; Win64; x64; rv:91.0) Gecko/20100101 Firefox/91.0",,Firefox,91.0,Windows,10.0,5f461dd6c139dd6b46c7596cbd57cd79
225,1,"""","""","""","""","""",sampler,102,194381,0.0-6.0-96.0,"""","""","""","""","""","""","""","""","""","""","""","""","2021-08-17 18:03:58",37.47.61.64,"Mozilla/5.0 (Windows NT 10.0; Win64; x64; rv:91.0) Gecko/20100101 Firefox/91.0",,Firefox,91.0,Windows,10.0,5f461dd6c139dd6b46c7596cbd57cd79
225,1,"""","""","""","""","""",sampler,103,194381,0.0-6.0-97.0,"""","""","""","""","""","""","""","""","""","""","""","""","2021-08-17 18:03:58",37.47.61.64,"Mozilla/5.0 (Windows NT 10.0; Win64; x64; rv:91.0) Gecko/20100101 Firefox/91.0",,Firefox,91.0,Windows,10.0,5f461dd6c139dd6b46c7596cbd57cd79
225,1,"""","""","""","""","""",sampler,104,194381,0.0-6.0-98.0,"""","""","""","""","""","""","""","""","""","""","""","""","2021-08-17 18:03:58",37.47.61.64,"Mozilla/5.0 (Windows NT 10.0; Win64; x64; rv:91.0) Gecko/20100101 Firefox/91.0",,Firefox,91.0,Windows,10.0,5f461dd6c139dd6b46c7596cbd57cd79
225,1,"""","""","""","""","""",sampler,105,194381,0.0-6.0-99.0,"""","""","""","""","""","""","""","""","""","""","""","""","2021-08-17 18:03:58",37.47.61.64,"Mozilla/5.0 (Windows NT 10.0; Win64; x64; rv:91.0) Gecko/20100101 Firefox/91.0",,Firefox,91.0,Windows,10.0,5f461dd6c139dd6b46c7596cbd57cd79
225,1,"""","""","""","""","""",sampler,106,194381,0.0-6.0-100.0,"""","""","""","""","""","""","""","""","""","""","""","""","2021-08-17 18:03:58",37.47.61.64,"Mozilla/5.0 (Windows NT 10.0; Win64; x64; rv:91.0) Gecko/20100101 Firefox/91.0",,Firefox,91.0,Windows,10.0,5f461dd6c139dd6b46c7596cbd57cd79
225,1,"""","""","""","""","""",sampler,107,194382,0.0-6.0-101.0,"""","""","""","""","""","""","""","""","""","""","""","""","2021-08-17 18:03:58",37.47.61.64,"Mozilla/5.0 (Windows NT 10.0; Win64; x64; rv:91.0) Gecko/20100101 Firefox/91.0",,Firefox,91.0,Windows,10.0,5f461dd6c139dd6b46c7596cbd57cd79
225,1,"""","""","""","""","""",sampler,108,194382,0.0-6.0-102.0,"""","""","""","""","""","""","""","""","""","""","""","""","2021-08-17 18:03:58",37.47.61.64,"Mozilla/5.0 (Windows NT 10.0; Win64; x64; rv:91.0) Gecko/20100101 Firefox/91.0",,Firefox,91.0,Windows,10.0,5f461dd6c139dd6b46c7596cbd57cd79
225,1,"""","""","""","""","""",sampler,109,194382,0.0-6.0-103.0,"""","""","""","""","""","""","""","""","""","""","""","""","2021-08-17 18:03:58",37.47.61.64,"Mozilla/5.0 (Windows NT 10.0; Win64; x64; rv:91.0) Gecko/20100101 Firefox/91.0",,Firefox,91.0,Windows,10.0,5f461dd6c139dd6b46c7596cbd57cd79
225,1,"""","""","""","""","""",sampler,110,194383,0.0-6.0-104.0,"""","""","""","""","""","""","""","""","""","""","""","""","2021-08-17 18:03:58",37.47.61.64,"Mozilla/5.0 (Windows NT 10.0; Win64; x64; rv:91.0) Gecko/20100101 Firefox/91.0",,Firefox,91.0,Windows,10.0,5f461dd6c139dd6b46c7596cbd57cd79
225,1,"""","""","""","""","""",sampler,111,194383,0.0-6.0-105.0,"""","""","""","""","""","""","""","""","""","""","""","""","2021-08-17 18:03:58",37.47.61.64,"Mozilla/5.0 (Windows NT 10.0; Win64; x64; rv:91.0) Gecko/20100101 Firefox/91.0",,Firefox,91.0,Windows,10.0,5f461dd6c139dd6b46c7596cbd57cd79
225,1,"""","""","""","""","""",sampler,112,194383,0.0-6.0-106.0,"""","""","""","""","""","""","""","""","""","""","""","""","2021-08-17 18:03:58",37.47.61.64,"Mozilla/5.0 (Windows NT 10.0; Win64; x64; rv:91.0) Gecko/20100101 Firefox/91.0",,Firefox,91.0,Windows,10.0,5f461dd6c139dd6b46c7596cbd57cd79
225,1,"""","""","""","""","""",sampler,113,194383,0.0-6.0-107.0,"""","""","""","""","""","""","""","""","""","""","""","""","2021-08-17 18:03:58",37.47.61.64,"Mozilla/5.0 (Windows NT 10.0; Win64; x64; rv:91.0) Gecko/20100101 Firefox/91.0",,Firefox,91.0,Windows,10.0,5f461dd6c139dd6b46c7596cbd57cd79
225,1,"""","""","""","""","""",sampler,114,194383,0.0-6.0-108.0,"""","""","""","""","""","""","""","""","""","""","""","""","2021-08-17 18:03:58",37.47.61.64,"Mozilla/5.0 (Windows NT 10.0; Win64; x64; rv:91.0) Gecko/20100101 Firefox/91.0",,Firefox,91.0,Windows,10.0,5f461dd6c139dd6b46c7596cbd57cd79
225,1,"""","""","""","""","""",sampler,115,194383,0.0-6.0-109.0,"""","""","""","""","""","""","""","""","""","""","""","""","2021-08-17 18:03:58",37.47.61.64,"Mozilla/5.0 (Windows NT 10.0; Win64; x64; rv:91.0) Gecko/20100101 Firefox/91.0",,Firefox,91.0,Windows,10.0,5f461dd6c139dd6b46c7596cbd57cd79
225,1,"""","""","""","""","""",sampler,116,194383,0.0-6.0-110.0,"""","""","""","""","""","""","""","""","""","""","""","""","2021-08-17 18:03:58",37.47.61.64,"Mozilla/5.0 (Windows NT 10.0; Win64; x64; rv:91.0) Gecko/20100101 Firefox/91.0",,Firefox,91.0,Windows,10.0,5f461dd6c139dd6b46c7596cbd57cd79
225,1,"""","""","""","""","""",sampler,117,194384,0.0-6.0-111.0,"""","""","""","""","""","""","""","""","""","""","""","""","2021-08-17 18:03:58",37.47.61.64,"Mozilla/5.0 (Windows NT 10.0; Win64; x64; rv:91.0) Gecko/20100101 Firefox/91.0",,Firefox,91.0,Windows,10.0,5f461dd6c139dd6b46c7596cbd57cd79
225,1,"""","""","""","""","""",sampler,118,194384,0.0-6.0-112.0,"""","""","""","""","""","""","""","""","""","""","""","""","2021-08-17 18:03:58",37.47.61.64,"Mozilla/5.0 (Windows NT 10.0; Win64; x64; rv:91.0) Gecko/20100101 Firefox/91.0",,Firefox,91.0,Windows,10.0,5f461dd6c139dd6b46c7596cbd57cd79
225,1,"""","""","""","""","""",sampler,119,194384,0.0-6.0-113.0,"""","""","""","""","""","""","""","""","""","""","""","""","2021-08-17 18:03:58",37.47.61.64,"Mozilla/5.0 (Windows NT 10.0; Win64; x64; rv:91.0) Gecko/20100101 Firefox/91.0",,Firefox,91.0,Windows,10.0,5f461dd6c139dd6b46c7596cbd57cd79
225,1,"""","""","""","""","""",sampler,120,194384,0.0-6.0-114.0,"""","""","""","""","""","""","""","""","""","""","""","""","2021-08-17 18:03:58",37.47.61.64,"Mozilla/5.0 (Windows NT 10.0; Win64; x64; rv:91.0) Gecko/20100101 Firefox/91.0",,Firefox,91.0,Windows,10.0,5f461dd6c139dd6b46c7596cbd57cd79
225,1,"""","""","""","""","""",sampler,121,194384,0.0-6.0-115.0,"""","""","""","""","""","""","""","""","""","""","""","""","2021-08-17 18:03:58",37.47.61.64,"Mozilla/5.0 (Windows NT 10.0; Win64; x64; rv:91.0) Gecko/20100101 Firefox/91.0",,Firefox,91.0,Windows,10.0,5f461dd6c139dd6b46c7596cbd57cd79
225,1,"""","""","""","""","""",sampler,122,194384,0.0-6.0-116.0,"""","""","""","""","""","""","""","""","""","""","""","""","2021-08-17 18:03:58",37.47.61.64,"Mozilla/5.0 (Windows NT 10.0; Win64; x64; rv:91.0) Gecko/20100101 Firefox/91.0",,Firefox,91.0,Windows,10.0,5f461dd6c139dd6b46c7596cbd57cd79
225,1,"""","""","""","""","""",sampler,123,194384,0.0-6.0-117.0,"""","""","""","""","""","""","""","""","""","""","""","""","2021-08-17 18:03:58",37.47.61.64,"Mozilla/5.0 (Windows NT 10.0; Win64; x64; rv:91.0) Gecko/20100101 Firefox/91.0",,Firefox,91.0,Windows,10.0,5f461dd6c139dd6b46c7596cbd57cd79
225,1,"""","""","""","""","""",sampler,124,194384,0.0-6.0-118.0,"""","""","""","""","""","""","""","""","""","""","""","""","2021-08-17 18:03:58",37.47.61.64,"Mozilla/5.0 (Windows NT 10.0; Win64; x64; rv:91.0) Gecko/20100101 Firefox/91.0",,Firefox,91.0,Windows,10.0,5f461dd6c139dd6b46c7596cbd57cd79
225,1,"""","""","""","""","""",sampler,125,194384,0.0-6.0-119.0,"""","""","""","""","""","""","""","""","""","""","""","""","2021-08-17 18:03:58",37.47.61.64,"Mozilla/5.0 (Windows NT 10.0; Win64; x64; rv:91.0) Gecko/20100101 Firefox/91.0",,Firefox,91.0,Windows,10.0,5f461dd6c139dd6b46c7596cbd57cd79
225,1,"""","""","""","""","""",sampler,126,194384,0.0-6.0-120.0,"""","""","""","""","""","""","""","""","""","""","""","""","2021-08-17 18:03:58",37.47.61.64,"Mozilla/5.0 (Windows NT 10.0; Win64; x64; rv:91.0) Gecko/20100101 Firefox/91.0",,Firefox,91.0,Windows,10.0,5f461dd6c139dd6b46c7596cbd57cd79
225,1,"""","""","""","""","""",sampler,127,194384,0.0-6.0-121.0,"""","""","""","""","""","""","""","""","""","""","""","""","2021-08-17 18:03:58",37.47.61.64,"Mozilla/5.0 (Windows NT 10.0; Win64; x64; rv:91.0) Gecko/20100101 Firefox/91.0",,Firefox,91.0,Windows,10.0,5f461dd6c139dd6b46c7596cbd57cd79
225,1,"""","""","""","""","""",sampler,128,194385,0.0-6.0-122.0,"""","""","""","""","""","""","""","""","""","""","""","""","2021-08-17 18:03:58",37.47.61.64,"Mozilla/5.0 (Windows NT 10.0; Win64; x64; rv:91.0) Gecko/20100101 Firefox/91.0",,Firefox,91.0,Windows,10.0,5f461dd6c139dd6b46c7596cbd57cd79
225,1,"""","""","""","""","""",sampler,129,194385,0.0-6.0-123.0,"""","""","""","""","""","""","""","""","""","""","""","""","2021-08-17 18:03:58",37.47.61.64,"Mozilla/5.0 (Windows NT 10.0; Win64; x64; rv:91.0) Gecko/20100101 Firefox/91.0",,Firefox,91.0,Windows,10.0,5f461dd6c139dd6b46c7596cbd57cd79
225,1,"""","""","""","""","""",sampler,130,194385,0.0-6.0-124.0,"""","""","""","""","""","""","""","""","""","""","""","""","2021-08-17 18:03:58",37.47.61.64,"Mozilla/5.0 (Windows NT 10.0; Win64; x64; rv:91.0) Gecko/20100101 Firefox/91.0",,Firefox,91.0,Windows,10.0,5f461dd6c139dd6b46c7596cbd57cd79
225,1,"""","""","""","""","""",sampler,131,194385,0.0-6.0-125.0,"""","""","""","""","""","""","""","""","""","""","""","""","2021-08-17 18:03:58",37.47.61.64,"Mozilla/5.0 (Windows NT 10.0; Win64; x64; rv:91.0) Gecko/20100101 Firefox/91.0",,Firefox,91.0,Windows,10.0,5f461dd6c139dd6b46c7596cbd57cd79
225,1,"""","""","""","""","""",sampler,132,194385,0.0-6.0-126.0,"""","""","""","""","""","""","""","""","""","""","""","""","2021-08-17 18:03:58",37.47.61.64,"Mozilla/5.0 (Windows NT 10.0; Win64; x64; rv:91.0) Gecko/20100101 Firefox/91.0",,Firefox,91.0,Windows,10.0,5f461dd6c139dd6b46c7596cbd57cd79
225,1,"""","""","""","""","""",sampler,133,194385,0.0-6.0-127.0,"""","""","""","""","""","""","""","""","""","""","""","""","2021-08-17 18:03:58",37.47.61.64,"Mozilla/5.0 (Windows NT 10.0; Win64; x64; rv:91.0) Gecko/20100101 Firefox/91.0",,Firefox,91.0,Windows,10.0,5f461dd6c139dd6b46c7596cbd57cd79
225,1,"""","""","""","""","""",sampler,134,194385,0.0-6.0-128.0,"""","""","""","""","""","""","""","""","""","""","""","""","2021-08-17 18:03:58",37.47.61.64,"Mozilla/5.0 (Windows NT 10.0; Win64; x64; rv:91.0) Gecko/20100101 Firefox/91.0",,Firefox,91.0,Windows,10.0,5f461dd6c139dd6b46c7596cbd57cd79
225,1,"""","""","""","""","""",sampler,135,194385,0.0-6.0-129.0,"""","""","""","""","""","""","""","""","""","""","""","""","2021-08-17 18:03:58",37.47.61.64,"Mozilla/5.0 (Windows NT 10.0; Win64; x64; rv:91.0) Gecko/20100101 Firefox/91.0",,Firefox,91.0,Windows,10.0,5f461dd6c139dd6b46c7596cbd57cd79
225,1,"""","""","""","""","""",sampler,136,194385,0.0-6.0-130.0,"""","""","""","""","""","""","""","""","""","""","""","""","2021-08-17 18:03:58",37.47.61.64,"Mozilla/5.0 (Windows NT 10.0; Win64; x64; rv:91.0) Gecko/20100101 Firefox/91.0",,Firefox,91.0,Windows,10.0,5f461dd6c139dd6b46c7596cbd57cd79
225,1,"""","""","""","""","""",sampler,137,194385,0.0-6.0-131.0,"""","""","""","""","""","""","""","""","""","""","""","""","2021-08-17 18:03:58",37.47.61.64,"Mozilla/5.0 (Windows NT 10.0; Win64; x64; rv:91.0) Gecko/20100101 Firefox/91.0",,Firefox,91.0,Windows,10.0,5f461dd6c139dd6b46c7596cbd57cd79
225,1,"""","""","""","""","""",sampler,138,194385,0.0-6.0-132.0,"""","""","""","""","""","""","""","""","""","""","""","""","2021-08-17 18:03:58",37.47.61.64,"Mozilla/5.0 (Windows NT 10.0; Win64; x64; rv:91.0) Gecko/20100101 Firefox/91.0",,Firefox,91.0,Windows,10.0,5f461dd6c139dd6b46c7596cbd57cd79
225,1,"""","""","""","""","""",sampler,139,194386,0.0-6.0-133.0,"""","""","""","""","""","""","""","""","""","""","""","""","2021-08-17 18:03:58",37.47.61.64,"Mozilla/5.0 (Windows NT 10.0; Win64; x64; rv:91.0) Gecko/20100101 Firefox/91.0",,Firefox,91.0,Windows,10.0,5f461dd6c139dd6b46c7596cbd57cd79
225,1,"""","""","""","""","""",sampler,140,194386,0.0-6.0-134.0,"""","""","""","""","""","""","""","""","""","""","""","""","2021-08-17 18:03:58",37.47.61.64,"Mozilla/5.0 (Windows NT 10.0; Win64; x64; rv:91.0) Gecko/20100101 Firefox/91.0",,Firefox,91.0,Windows,10.0,5f461dd6c139dd6b46c7596cbd57cd79
225,1,"""","""","""","""","""",sampler,141,194386,0.0-6.0-135.0,"""","""","""","""","""","""","""","""","""","""","""","""","2021-08-17 18:03:58",37.47.61.64,"Mozilla/5.0 (Windows NT 10.0; Win64; x64; rv:91.0) Gecko/20100101 Firefox/91.0",,Firefox,91.0,Windows,10.0,5f461dd6c139dd6b46c7596cbd57cd79
225,1,"""","""","""","""","""",sampler,142,194386,0.0-6.0-136.0,"""","""","""","""","""","""","""","""","""","""","""","""","2021-08-17 18:03:58",37.47.61.64,"Mozilla/5.0 (Windows NT 10.0; Win64; x64; rv:91.0) Gecko/20100101 Firefox/91.0",,Firefox,91.0,Windows,10.0,5f461dd6c139dd6b46c7596cbd57cd79
225,1,"""","""","""","""","""",sampler,143,194386,0.0-6.0-137.0,"""","""","""","""","""","""","""","""","""","""","""","""","2021-08-17 18:03:58",37.47.61.64,"Mozilla/5.0 (Windows NT 10.0; Win64; x64; rv:91.0) Gecko/20100101 Firefox/91.0",,Firefox,91.0,Windows,10.0,5f461dd6c139dd6b46c7596cbd57cd79
225,1,"""","""","""","""","""",sampler,144,194386,0.0-6.0-138.0,"""","""","""","""","""","""","""","""","""","""","""","""","2021-08-17 18:03:58",37.47.61.64,"Mozilla/5.0 (Windows NT 10.0; Win64; x64; rv:91.0) Gecko/20100101 Firefox/91.0",,Firefox,91.0,Windows,10.0,5f461dd6c139dd6b46c7596cbd57cd79
225,1,"""","""","""","""","""",sampler,145,194386,0.0-6.0-139.0,"""","""","""","""","""","""","""","""","""","""","""","""","2021-08-17 18:03:58",37.47.61.64,"Mozilla/5.0 (Windows NT 10.0; Win64; x64; rv:91.0) Gecko/20100101 Firefox/91.0",,Firefox,91.0,Windows,10.0,5f461dd6c139dd6b46c7596cbd57cd79
225,1,"""","""","""","""","""",sampler,146,194386,0.0-6.0-140.0,"""","""","""","""","""","""","""","""","""","""","""","""","2021-08-17 18:03:58",37.47.61.64,"Mozilla/5.0 (Windows NT 10.0; Win64; x64; rv:91.0) Gecko/20100101 Firefox/91.0",,Firefox,91.0,Windows,10.0,5f461dd6c139dd6b46c7596cbd57cd79
225,1,"""","""","""","""","""",sampler,147,194386,0.0-6.0-141.0,"""","""","""","""","""","""","""","""","""","""","""","""","2021-08-17 18:03:58",37.47.61.64,"Mozilla/5.0 (Windows NT 10.0; Win64; x64; rv:91.0) Gecko/20100101 Firefox/91.0",,Firefox,91.0,Windows,10.0,5f461dd6c139dd6b46c7596cbd57cd79
225,1,"""","""","""","""","""",sampler,148,194386,0.0-6.0-142.0,"""","""","""","""","""","""","""","""","""","""","""","""","2021-08-17 18:03:58",37.47.61.64,"Mozilla/5.0 (Windows NT 10.0; Win64; x64; rv:91.0) Gecko/20100101 Firefox/91.0",,Firefox,91.0,Windows,10.0,5f461dd6c139dd6b46c7596cbd57cd79
225,1,"""","""","""","""","""",sampler,149,194386,0.0-6.0-143.0,"""","""","""","""","""","""","""","""","""","""","""","""","2021-08-17 18:03:58",37.47.61.64,"Mozilla/5.0 (Windows NT 10.0; Win64; x64; rv:91.0) Gecko/20100101 Firefox/91.0",,Firefox,91.0,Windows,10.0,5f461dd6c139dd6b46c7596cbd57cd79
225,1,"""","""","""","""","""",sampler,150,194386,0.0-6.0-144.0,"""","""","""","""","""","""","""","""","""","""","""","""","2021-08-17 18:03:58",37.47.61.64,"Mozilla/5.0 (Windows NT 10.0; Win64; x64; rv:91.0) Gecko/20100101 Firefox/91.0",,Firefox,91.0,Windows,10.0,5f461dd6c139dd6b46c7596cbd57cd79
225,1,"""","""","""","""","""",sampler,151,194387,0.0-6.0-145.0,"""","""","""","""","""","""","""","""","""","""","""","""","2021-08-17 18:03:58",37.47.61.64,"Mozilla/5.0 (Windows NT 10.0; Win64; x64; rv:91.0) Gecko/20100101 Firefox/91.0",,Firefox,91.0,Windows,10.0,5f461dd6c139dd6b46c7596cbd57cd79
225,1,"""","""","""","""","""",sampler,152,194387,0.0-6.0-146.0,"""","""","""","""","""","""","""","""","""","""","""","""","2021-08-17 18:03:58",37.47.61.64,"Mozilla/5.0 (Windows NT 10.0; Win64; x64; rv:91.0) Gecko/20100101 Firefox/91.0",,Firefox,91.0,Windows,10.0,5f461dd6c139dd6b46c7596cbd57cd79
225,1,"""","""","""","""","""",sampler,153,194387,0.0-6.0-147.0,"""","""","""","""","""","""","""","""","""","""","""","""","2021-08-17 18:03:58",37.47.61.64,"Mozilla/5.0 (Windows NT 10.0; Win64; x64; rv:91.0) Gecko/20100101 Firefox/91.0",,Firefox,91.0,Windows,10.0,5f461dd6c139dd6b46c7596cbd57cd79
225,1,"""","""","""","""","""",sampler,154,194387,0.0-6.0-148.0,"""","""","""","""","""","""","""","""","""","""","""","""","2021-08-17 18:03:58",37.47.61.64,"Mozilla/5.0 (Windows NT 10.0; Win64; x64; rv:91.0) Gecko/20100101 Firefox/91.0",,Firefox,91.0,Windows,10.0,5f461dd6c139dd6b46c7596cbd57cd79
225,1,"""","""","""","""","""",sampler,155,194387,0.0-6.0-149.0,"""","""","""","""","""","""","""","""","""","""","""","""","2021-08-17 18:03:58",37.47.61.64,"Mozilla/5.0 (Windows NT 10.0; Win64; x64; rv:91.0) Gecko/20100101 Firefox/91.0",,Firefox,91.0,Windows,10.0,5f461dd6c139dd6b46c7596cbd57cd79
225,1,"""","""","""","""","""",sampler,156,194387,0.0-6.0-150.0,"""","""","""","""","""","""","""","""","""","""","""","""","2021-08-17 18:03:58",37.47.61.64,"Mozilla/5.0 (Windows NT 10.0; Win64; x64; rv:91.0) Gecko/20100101 Firefox/91.0",,Firefox,91.0,Windows,10.0,5f461dd6c139dd6b46c7596cbd57cd79
225,1,"""","""","""","""","""",sampler,157,194388,0.0-6.0-151.0,"""","""","""","""","""","""","""","""","""","""","""","""","2021-08-17 18:03:58",37.47.61.64,"Mozilla/5.0 (Windows NT 10.0; Win64; x64; rv:91.0) Gecko/20100101 Firefox/91.0",,Firefox,91.0,Windows,10.0,5f461dd6c139dd6b46c7596cbd57cd79
225,1,"""","""","""","""","""",sampler,158,194388,0.0-6.0-152.0,"""","""","""","""","""","""","""","""","""","""","""","""","2021-08-17 18:03:58",37.47.61.64,"Mozilla/5.0 (Windows NT 10.0; Win64; x64; rv:91.0) Gecko/20100101 Firefox/91.0",,Firefox,91.0,Windows,10.0,5f461dd6c139dd6b46c7596cbd57cd79
225,1,"""","""","""","""","""",sampler,159,194388,0.0-6.0-153.0,"""","""","""","""","""","""","""","""","""","""","""","""","2021-08-17 18:03:58",37.47.61.64,"Mozilla/5.0 (Windows NT 10.0; Win64; x64; rv:91.0) Gecko/20100101 Firefox/91.0",,Firefox,91.0,Windows,10.0,5f461dd6c139dd6b46c7596cbd57cd79
225,1,"""","""","""","""","""",sampler,160,194388,0.0-6.0-154.0,"""","""","""","""","""","""","""","""","""","""","""","""","2021-08-17 18:03:58",37.47.61.64,"Mozilla/5.0 (Windows NT 10.0; Win64; x64; rv:91.0) Gecko/20100101 Firefox/91.0",,Firefox,91.0,Windows,10.0,5f461dd6c139dd6b46c7596cbd57cd79
225,1,"""","""","""","""","""",sampler,161,194388,0.0-6.0-155.0,"""","""","""","""","""","""","""","""","""","""","""","""","2021-08-17 18:03:58",37.47.61.64,"Mozilla/5.0 (Windows NT 10.0; Win64; x64; rv:91.0) Gecko/20100101 Firefox/91.0",,Firefox,91.0,Windows,10.0,5f461dd6c139dd6b46c7596cbd57cd79
225,1,"""","""","""","""","""",sampler,162,194388,0.0-6.0-156.0,"""","""","""","""","""","""","""","""","""","""","""","""","2021-08-17 18:03:58",37.47.61.64,"Mozilla/5.0 (Windows NT 10.0; Win64; x64; rv:91.0) Gecko/20100101 Firefox/91.0",,Firefox,91.0,Windows,10.0,5f461dd6c139dd6b46c7596cbd57cd79
225,1,"""","""","""","""","""",sampler,163,194388,0.0-6.0-157.0,"""","""","""","""","""","""","""","""","""","""","""","""","2021-08-17 18:03:58",37.47.61.64,"Mozilla/5.0 (Windows NT 10.0; Win64; x64; rv:91.0) Gecko/20100101 Firefox/91.0",,Firefox,91.0,Windows,10.0,5f461dd6c139dd6b46c7596cbd57cd79
225,1,"""","""","""","""","""",sampler,164,194389,0.0-6.0-158.0,"""","""","""","""","""","""","""","""","""","""","""","""","2021-08-17 18:03:58",37.47.61.64,"Mozilla/5.0 (Windows NT 10.0; Win64; x64; rv:91.0) Gecko/20100101 Firefox/91.0",,Firefox,91.0,Windows,10.0,5f461dd6c139dd6b46c7596cbd57cd79
225,1,"""","""","""","""","""",sampler,165,194389,0.0-6.0-159.0,"""","""","""","""","""","""","""","""","""","""","""","""","2021-08-17 18:03:58",37.47.61.64,"Mozilla/5.0 (Windows NT 10.0; Win64; x64; rv:91.0) Gecko/20100101 Firefox/91.0",,Firefox,91.0,Windows,10.0,5f461dd6c139dd6b46c7596cbd57cd79
225,1,"""","""","""","""","""",sampler,166,194389,0.0-6.0-160.0,"""","""","""","""","""","""","""","""","""","""","""","""","2021-08-17 18:03:58",37.47.61.64,"Mozilla/5.0 (Windows NT 10.0; Win64; x64; rv:91.0) Gecko/20100101 Firefox/91.0",,Firefox,91.0,Windows,10.0,5f461dd6c139dd6b46c7596cbd57cd79
225,1,"""","""","""","""","""",sampler,167,194389,0.0-6.0-161.0,"""","""","""","""","""","""","""","""","""","""","""","""","2021-08-17 18:03:58",37.47.61.64,"Mozilla/5.0 (Windows NT 10.0; Win64; x64; rv:91.0) Gecko/20100101 Firefox/91.0",,Firefox,91.0,Windows,10.0,5f461dd6c139dd6b46c7596cbd57cd79
225,1,"""","""","""","""","""",sampler,168,194389,0.0-6.0-162.0,"""","""","""","""","""","""","""","""","""","""","""","""","2021-08-17 18:03:58",37.47.61.64,"Mozilla/5.0 (Windows NT 10.0; Win64; x64; rv:91.0) Gecko/20100101 Firefox/91.0",,Firefox,91.0,Windows,10.0,5f461dd6c139dd6b46c7596cbd57cd79
225,1,"""","""","""","""","""",sampler,169,194389,0.0-6.0-163.0,"""","""","""","""","""","""","""","""","""","""","""","""","2021-08-17 18:03:58",37.47.61.64,"Mozilla/5.0 (Windows NT 10.0; Win64; x64; rv:91.0) Gecko/20100101 Firefox/91.0",,Firefox,91.0,Windows,10.0,5f461dd6c139dd6b46c7596cbd57cd79
225,1,"""","""","""","""","""",sampler,170,194389,0.0-6.0-164.0,"""","""","""","""","""","""","""","""","""","""","""","""","2021-08-17 18:03:58",37.47.61.64,"Mozilla/5.0 (Windows NT 10.0; Win64; x64; rv:91.0) Gecko/20100101 Firefox/91.0",,Firefox,91.0,Windows,10.0,5f461dd6c139dd6b46c7596cbd57cd79
225,1,"""","""","""","""","""",sampler,171,194389,0.0-6.0-165.0,"""","""","""","""","""","""","""","""","""","""","""","""","2021-08-17 18:03:58",37.47.61.64,"Mozilla/5.0 (Windows NT 10.0; Win64; x64; rv:91.0) Gecko/20100101 Firefox/91.0",,Firefox,91.0,Windows,10.0,5f461dd6c139dd6b46c7596cbd57cd79
225,1,"""","""","""","""","""",sampler,172,194389,0.0-6.0-166.0,"""","""","""","""","""","""","""","""","""","""","""","""","2021-08-17 18:03:58",37.47.61.64,"Mozilla/5.0 (Windows NT 10.0; Win64; x64; rv:91.0) Gecko/20100101 Firefox/91.0",,Firefox,91.0,Windows,10.0,5f461dd6c139dd6b46c7596cbd57cd79
225,1,"""","""","""","""","""",sampler,173,194390,0.0-6.0-167.0,"""","""","""","""","""","""","""","""","""","""","""","""","2021-08-17 18:03:58",37.47.61.64,"Mozilla/5.0 (Windows NT 10.0; Win64; x64; rv:91.0) Gecko/20100101 Firefox/91.0",,Firefox,91.0,Windows,10.0,5f461dd6c139dd6b46c7596cbd57cd79
225,1,"""","""","""","""","""",sampler,174,194390,0.0-6.0-168.0,"""","""","""","""","""","""","""","""","""","""","""","""","2021-08-17 18:03:58",37.47.61.64,"Mozilla/5.0 (Windows NT 10.0; Win64; x64; rv:91.0) Gecko/20100101 Firefox/91.0",,Firefox,91.0,Windows,10.0,5f461dd6c139dd6b46c7596cbd57cd79
225,1,"""","""","""","""","""",sampler,175,194390,0.0-6.0-169.0,"""","""","""","""","""","""","""","""","""","""","""","""","2021-08-17 18:03:58",37.47.61.64,"Mozilla/5.0 (Windows NT 10.0; Win64; x64; rv:91.0) Gecko/20100101 Firefox/91.0",,Firefox,91.0,Windows,10.0,5f461dd6c139dd6b46c7596cbd57cd79
225,1,"""","""","""","""","""",sampler,176,194390,0.0-6.0-170.0,"""","""","""","""","""","""","""","""","""","""","""","""","2021-08-17 18:03:58",37.47.61.64,"Mozilla/5.0 (Windows NT 10.0; Win64; x64; rv:91.0) Gecko/20100101 Firefox/91.0",,Firefox,91.0,Windows,10.0,5f461dd6c139dd6b46c7596cbd57cd79
225,1,"""","""","""","""","""",sampler,177,194390,0.0-6.0-171.0,"""","""","""","""","""","""","""","""","""","""","""","""","2021-08-17 18:03:58",37.47.61.64,"Mozilla/5.0 (Windows NT 10.0; Win64; x64; rv:91.0) Gecko/20100101 Firefox/91.0",,Firefox,91.0,Windows,10.0,5f461dd6c139dd6b46c7596cbd57cd79
225,1,"""","""","""","""","""",sampler,178,194390,0.0-6.0-172.0,"""","""","""","""","""","""","""","""","""","""","""","""","2021-08-17 18:03:58",37.47.61.64,"Mozilla/5.0 (Windows NT 10.0; Win64; x64; rv:91.0) Gecko/20100101 Firefox/91.0",,Firefox,91.0,Windows,10.0,5f461dd6c139dd6b46c7596cbd57cd79
225,1,"""","""","""","""","""",sampler,179,194391,0.0-6.0-173.0,"""","""","""","""","""","""","""","""","""","""","""","""","2021-08-17 18:03:58",37.47.61.64,"Mozilla/5.0 (Windows NT 10.0; Win64; x64; rv:91.0) Gecko/20100101 Firefox/91.0",,Firefox,91.0,Windows,10.0,5f461dd6c139dd6b46c7596cbd57cd79
225,1,"""","""","""","""","""",sampler,180,194391,0.0-6.0-174.0,"""","""","""","""","""","""","""","""","""","""","""","""","2021-08-17 18:03:58",37.47.61.64,"Mozilla/5.0 (Windows NT 10.0; Win64; x64; rv:91.0) Gecko/20100101 Firefox/91.0",,Firefox,91.0,Windows,10.0,5f461dd6c139dd6b46c7596cbd57cd79
225,1,"""","""","""","""","""",sampler,181,194391,0.0-6.0-175.0,"""","""","""","""","""","""","""","""","""","""","""","""","2021-08-17 18:03:58",37.47.61.64,"Mozilla/5.0 (Windows NT 10.0; Win64; x64; rv:91.0) Gecko/20100101 Firefox/91.0",,Firefox,91.0,Windows,10.0,5f461dd6c139dd6b46c7596cbd57cd79
225,1,"""","""","""","""","""",sampler,182,194391,0.0-6.0-176.0,"""","""","""","""","""","""","""","""","""","""","""","""","2021-08-17 18:03:58",37.47.61.64,"Mozilla/5.0 (Windows NT 10.0; Win64; x64; rv:91.0) Gecko/20100101 Firefox/91.0",,Firefox,91.0,Windows,10.0,5f461dd6c139dd6b46c7596cbd57cd79
225,1,"""","""","""","""","""",sampler,183,194391,0.0-6.0-177.0,"""","""","""","""","""","""","""","""","""","""","""","""","2021-08-17 18:03:58",37.47.61.64,"Mozilla/5.0 (Windows NT 10.0; Win64; x64; rv:91.0) Gecko/20100101 Firefox/91.0",,Firefox,91.0,Windows,10.0,5f461dd6c139dd6b46c7596cbd57cd79
225,1,"""","""","""","""","""",sampler,184,194391,0.0-6.0-178.0,"""","""","""","""","""","""","""","""","""","""","""","""","2021-08-17 18:03:58",37.47.61.64,"Mozilla/5.0 (Windows NT 10.0; Win64; x64; rv:91.0) Gecko/20100101 Firefox/91.0",,Firefox,91.0,Windows,10.0,5f461dd6c139dd6b46c7596cbd57cd79
225,1,"""","""","""","""","""",sampler,185,194391,0.0-6.0-179.0,"""","""","""","""","""","""","""","""","""","""","""","""","2021-08-17 18:03:58",37.47.61.64,"Mozilla/5.0 (Windows NT 10.0; Win64; x64; rv:91.0) Gecko/20100101 Firefox/91.0",,Firefox,91.0,Windows,10.0,5f461dd6c139dd6b46c7596cbd57cd79
225,1,"""","""","""","""","""",sampler,186,194391,0.0-6.0-180.0,"""","""","""","""","""","""","""","""","""","""","""","""","2021-08-17 18:03:58",37.47.61.64,"Mozilla/5.0 (Windows NT 10.0; Win64; x64; rv:91.0) Gecko/20100101 Firefox/91.0",,Firefox,91.0,Windows,10.0,5f461dd6c139dd6b46c7596cbd57cd79
225,1,"""","""","""","""","""",sampler,187,194391,0.0-6.0-181.0,"""","""","""","""","""","""","""","""","""","""","""","""","2021-08-17 18:03:58",37.47.61.64,"Mozilla/5.0 (Windows NT 10.0; Win64; x64; rv:91.0) Gecko/20100101 Firefox/91.0",,Firefox,91.0,Windows,10.0,5f461dd6c139dd6b46c7596cbd57cd79
225,1,"""","""","""","""","""",sampler,188,194392,0.0-6.0-182.0,"""","""","""","""","""","""","""","""","""","""","""","""","2021-08-17 18:03:58",37.47.61.64,"Mozilla/5.0 (Windows NT 10.0; Win64; x64; rv:91.0) Gecko/20100101 Firefox/91.0",,Firefox,91.0,Windows,10.0,5f461dd6c139dd6b46c7596cbd57cd79
225,1,"""","""","""","""","""",sampler,189,194392,0.0-6.0-183.0,"""","""","""","""","""","""","""","""","""","""","""","""","2021-08-17 18:03:58",37.47.61.64,"Mozilla/5.0 (Windows NT 10.0; Win64; x64; rv:91.0) Gecko/20100101 Firefox/91.0",,Firefox,91.0,Windows,10.0,5f461dd6c139dd6b46c7596cbd57cd79
225,1,"""","""","""","""","""",sampler,190,194392,0.0-6.0-184.0,"""","""","""","""","""","""","""","""","""","""","""","""","2021-08-17 18:03:58",37.47.61.64,"Mozilla/5.0 (Windows NT 10.0; Win64; x64; rv:91.0) Gecko/20100101 Firefox/91.0",,Firefox,91.0,Windows,10.0,5f461dd6c139dd6b46c7596cbd57cd79
225,1,"""","""","""","""","""",sampler,191,194392,0.0-6.0-185.0,"""","""","""","""","""","""","""","""","""","""","""","""","2021-08-17 18:03:58",37.47.61.64,"Mozilla/5.0 (Windows NT 10.0; Win64; x64; rv:91.0) Gecko/20100101 Firefox/91.0",,Firefox,91.0,Windows,10.0,5f461dd6c139dd6b46c7596cbd57cd79
225,1,"""","""","""","""","""",sampler,192,194392,0.0-6.0-186.0,"""","""","""","""","""","""","""","""","""","""","""","""","2021-08-17 18:03:58",37.47.61.64,"Mozilla/5.0 (Windows NT 10.0; Win64; x64; rv:91.0) Gecko/20100101 Firefox/91.0",,Firefox,91.0,Windows,10.0,5f461dd6c139dd6b46c7596cbd57cd79
225,1,"""","""","""","""","""",sampler,193,194392,0.0-6.0-187.0,"""","""","""","""","""","""","""","""","""","""","""","""","2021-08-17 18:03:58",37.47.61.64,"Mozilla/5.0 (Windows NT 10.0; Win64; x64; rv:91.0) Gecko/20100101 Firefox/91.0",,Firefox,91.0,Windows,10.0,5f461dd6c139dd6b46c7596cbd57cd79
225,1,"""","""","""","""","""",sampler,194,194392,0.0-6.0-188.0,"""","""","""","""","""","""","""","""","""","""","""","""","2021-08-17 18:03:58",37.47.61.64,"Mozilla/5.0 (Windows NT 10.0; Win64; x64; rv:91.0) Gecko/20100101 Firefox/91.0",,Firefox,91.0,Windows,10.0,5f461dd6c139dd6b46c7596cbd57cd79
225,1,"""","""","""","""","""",sampler,195,194392,0.0-6.0-189.0,"""","""","""","""","""","""","""","""","""","""","""","""","2021-08-17 18:03:58",37.47.61.64,"Mozilla/5.0 (Windows NT 10.0; Win64; x64; rv:91.0) Gecko/20100101 Firefox/91.0",,Firefox,91.0,Windows,10.0,5f461dd6c139dd6b46c7596cbd57cd79
225,1,"""","""","""","""","""",sampler,196,194393,0.0-6.0-190.0,"""","""","""","""","""","""","""","""","""","""","""","""","2021-08-17 18:03:58",37.47.61.64,"Mozilla/5.0 (Windows NT 10.0; Win64; x64; rv:91.0) Gecko/20100101 Firefox/91.0",,Firefox,91.0,Windows,10.0,5f461dd6c139dd6b46c7596cbd57cd79
225,1,"""","""","""","""","""",sampler,197,194393,0.0-6.0-191.0,"""","""","""","""","""","""","""","""","""","""","""","""","2021-08-17 18:03:58",37.47.61.64,"Mozilla/5.0 (Windows NT 10.0; Win64; x64; rv:91.0) Gecko/20100101 Firefox/91.0",,Firefox,91.0,Windows,10.0,5f461dd6c139dd6b46c7596cbd57cd79
225,1,"""","""","""","""","""",sampler,198,194393,0.0-6.0-192.0,"""","""","""","""","""","""","""","""","""","""","""","""","2021-08-17 18:03:58",37.47.61.64,"Mozilla/5.0 (Windows NT 10.0; Win64; x64; rv:91.0) Gecko/20100101 Firefox/91.0",,Firefox,91.0,Windows,10.0,5f461dd6c139dd6b46c7596cbd57cd79
225,1,"""","""","""","""","""",sampler,199,194394,0.0-6.0-193.0,"""","""","""","""","""","""","""","""","""","""","""","""","2021-08-17 18:03:58",37.47.61.64,"Mozilla/5.0 (Windows NT 10.0; Win64; x64; rv:91.0) Gecko/20100101 Firefox/91.0",,Firefox,91.0,Windows,10.0,5f461dd6c139dd6b46c7596cbd57cd79
225,1,"""","""","""","""","""",sampler,200,194394,0.0-6.0-194.0,"""","""","""","""","""","""","""","""","""","""","""","""","2021-08-17 18:03:58",37.47.61.64,"Mozilla/5.0 (Windows NT 10.0; Win64; x64; rv:91.0) Gecko/20100101 Firefox/91.0",,Firefox,91.0,Windows,10.0,5f461dd6c139dd6b46c7596cbd57cd79
225,1,"""","""","""","""","""",sampler,201,194394,0.0-6.0-195.0,"""","""","""","""","""","""","""","""","""","""","""","""","2021-08-17 18:03:58",37.47.61.64,"Mozilla/5.0 (Windows NT 10.0; Win64; x64; rv:91.0) Gecko/20100101 Firefox/91.0",,Firefox,91.0,Windows,10.0,5f461dd6c139dd6b46c7596cbd57cd79
225,1,"""","""","""","""","""",sampler,202,194394,0.0-6.0-196.0,"""","""","""","""","""","""","""","""","""","""","""","""","2021-08-17 18:03:58",37.47.61.64,"Mozilla/5.0 (Windows NT 10.0; Win64; x64; rv:91.0) Gecko/20100101 Firefox/91.0",,Firefox,91.0,Windows,10.0,5f461dd6c139dd6b46c7596cbd57cd79
225,1,"""","""","""","""","""",sampler,203,194394,0.0-6.0-197.0,"""","""","""","""","""","""","""","""","""","""","""","""","2021-08-17 18:03:58",37.47.61.64,"Mozilla/5.0 (Windows NT 10.0; Win64; x64; rv:91.0) Gecko/20100101 Firefox/91.0",,Firefox,91.0,Windows,10.0,5f461dd6c139dd6b46c7596cbd57cd79
225,1,"""","""","""","""","""",sampler,204,194394,0.0-6.0-198.0,"""","""","""","""","""","""","""","""","""","""","""","""","2021-08-17 18:03:58",37.47.61.64,"Mozilla/5.0 (Windows NT 10.0; Win64; x64; rv:91.0) Gecko/20100101 Firefox/91.0",,Firefox,91.0,Windows,10.0,5f461dd6c139dd6b46c7596cbd57cd79
225,1,"""","""","""","""","""",sampler,205,194394,0.0-6.0-199.0,"""","""","""","""","""","""","""","""","""","""","""","""","2021-08-17 18:03:58",37.47.61.64,"Mozilla/5.0 (Windows NT 10.0; Win64; x64; rv:91.0) Gecko/20100101 Firefox/91.0",,Firefox,91.0,Windows,10.0,5f461dd6c139dd6b46c7596cbd57cd79
225,1,"""","""","""","""","""",sampler,206,194394,0.0-6.0-200.0,"""","""","""","""","""","""","""","""","""","""","""","""","2021-08-17 18:03:58",37.47.61.64,"Mozilla/5.0 (Windows NT 10.0; Win64; x64; rv:91.0) Gecko/20100101 Firefox/91.0",,Firefox,91.0,Windows,10.0,5f461dd6c139dd6b46c7596cbd57cd79
225,1,"""","""","""","""","""",sampler,207,194394,0.0-6.0-201.0,"""","""","""","""","""","""","""","""","""","""","""","""","2021-08-17 18:03:58",37.47.61.64,"Mozilla/5.0 (Windows NT 10.0; Win64; x64; rv:91.0) Gecko/20100101 Firefox/91.0",,Firefox,91.0,Windows,10.0,5f461dd6c139dd6b46c7596cbd57cd79
225,1,"""","""","""","""","""",sampler,208,194395,0.0-6.0-202.0,"""","""","""","""","""","""","""","""","""","""","""","""","2021-08-17 18:03:58",37.47.61.64,"Mozilla/5.0 (Windows NT 10.0; Win64; x64; rv:91.0) Gecko/20100101 Firefox/91.0",,Firefox,91.0,Windows,10.0,5f461dd6c139dd6b46c7596cbd57cd79
225,1,"""","""","""","""","""",sampler,209,194395,0.0-6.0-203.0,"""","""","""","""","""","""","""","""","""","""","""","""","2021-08-17 18:03:58",37.47.61.64,"Mozilla/5.0 (Windows NT 10.0; Win64; x64; rv:91.0) Gecko/20100101 Firefox/91.0",,Firefox,91.0,Windows,10.0,5f461dd6c139dd6b46c7596cbd57cd79
225,1,"""","""","""","""","""",sampler,210,194395,0.0-6.0-204.0,"""","""","""","""","""","""","""","""","""","""","""","""","2021-08-17 18:03:58",37.47.61.64,"Mozilla/5.0 (Windows NT 10.0; Win64; x64; rv:91.0) Gecko/20100101 Firefox/91.0",,Firefox,91.0,Windows,10.0,5f461dd6c139dd6b46c7596cbd57cd79
225,1,"""","""","""","""","""",sampler,211,194395,0.0-6.0-205.0,"""","""","""","""","""","""","""","""","""","""","""","""","2021-08-17 18:03:58",37.47.61.64,"Mozilla/5.0 (Windows NT 10.0; Win64; x64; rv:91.0) Gecko/20100101 Firefox/91.0",,Firefox,91.0,Windows,10.0,5f461dd6c139dd6b46c7596cbd57cd79
225,1,"""","""","""","""","""",sampler,212,194395,0.0-6.0-206.0,"""","""","""","""","""","""","""","""","""","""","""","""","2021-08-17 18:03:58",37.47.61.64,"Mozilla/5.0 (Windows NT 10.0; Win64; x64; rv:91.0) Gecko/20100101 Firefox/91.0",,Firefox,91.0,Windows,10.0,5f461dd6c139dd6b46c7596cbd57cd79
225,1,"""","""","""","""","""",sampler,213,194395,0.0-6.0-207.0,"""","""","""","""","""","""","""","""","""","""","""","""","2021-08-17 18:03:58",37.47.61.64,"Mozilla/5.0 (Windows NT 10.0; Win64; x64; rv:91.0) Gecko/20100101 Firefox/91.0",,Firefox,91.0,Windows,10.0,5f461dd6c139dd6b46c7596cbd57cd79
225,1,"""","""","""","""","""",sampler,214,194395,0.0-6.0-208.0,"""","""","""","""","""","""","""","""","""","""","""","""","2021-08-17 18:03:58",37.47.61.64,"Mozilla/5.0 (Windows NT 10.0; Win64; x64; rv:91.0) Gecko/20100101 Firefox/91.0",,Firefox,91.0,Windows,10.0,5f461dd6c139dd6b46c7596cbd57cd79
225,1,"""","""","""","""","""",sampler,215,194395,0.0-6.0-209.0,"""","""","""","""","""","""","""","""","""","""","""","""","2021-08-17 18:03:58",37.47.61.64,"Mozilla/5.0 (Windows NT 10.0; Win64; x64; rv:91.0) Gecko/20100101 Firefox/91.0",,Firefox,91.0,Windows,10.0,5f461dd6c139dd6b46c7596cbd57cd79
225,1,"""","""","""","""","""",sampler,216,194395,0.0-6.0-210.0,"""","""","""","""","""","""","""","""","""","""","""","""","2021-08-17 18:03:58",37.47.61.64,"Mozilla/5.0 (Windows NT 10.0; Win64; x64; rv:91.0) Gecko/20100101 Firefox/91.0",,Firefox,91.0,Windows,10.0,5f461dd6c139dd6b46c7596cbd57cd79
225,1,"""","""","""","""","""",sampler,217,194395,0.0-6.0-211.0,"""","""","""","""","""","""","""","""","""","""","""","""","2021-08-17 18:03:58",37.47.61.64,"Mozilla/5.0 (Windows NT 10.0; Win64; x64; rv:91.0) Gecko/20100101 Firefox/91.0",,Firefox,91.0,Windows,10.0,5f461dd6c139dd6b46c7596cbd57cd79
225,1,"""","""","""","""","""",sampler,218,194396,0.0-6.0-212.0,"""","""","""","""","""","""","""","""","""","""","""","""","2021-08-17 18:03:58",37.47.61.64,"Mozilla/5.0 (Windows NT 10.0; Win64; x64; rv:91.0) Gecko/20100101 Firefox/91.0",,Firefox,91.0,Windows,10.0,5f461dd6c139dd6b46c7596cbd57cd79
225,1,"""","""","""","""","""",sampler,219,194396,0.0-6.0-213.0,"""","""","""","""","""","""","""","""","""","""","""","""","2021-08-17 18:03:58",37.47.61.64,"Mozilla/5.0 (Windows NT 10.0; Win64; x64; rv:91.0) Gecko/20100101 Firefox/91.0",,Firefox,91.0,Windows,10.0,5f461dd6c139dd6b46c7596cbd57cd79
225,1,"""","""","""","""","""",sampler,220,194396,0.0-6.0-214.0,"""","""","""","""","""","""","""","""","""","""","""","""","2021-08-17 18:03:58",37.47.61.64,"Mozilla/5.0 (Windows NT 10.0; Win64; x64; rv:91.0) Gecko/20100101 Firefox/91.0",,Firefox,91.0,Windows,10.0,5f461dd6c139dd6b46c7596cbd57cd79
225,1,"""","""","""","""","""",sampler,221,194397,0.0-6.0-215.0,"""","""","""","""","""","""","""","""","""","""","""","""","2021-08-17 18:03:58",37.47.61.64,"Mozilla/5.0 (Windows NT 10.0; Win64; x64; rv:91.0) Gecko/20100101 Firefox/91.0",,Firefox,91.0,Windows,10.0,5f461dd6c139dd6b46c7596cbd57cd79
225,1,"""","""","""","""","""",sampler,222,194397,0.0-6.0-216.0,"""","""","""","""","""","""","""","""","""","""","""","""","2021-08-17 18:03:58",37.47.61.64,"Mozilla/5.0 (Windows NT 10.0; Win64; x64; rv:91.0) Gecko/20100101 Firefox/91.0",,Firefox,91.0,Windows,10.0,5f461dd6c139dd6b46c7596cbd57cd79
225,1,"""","""","""","""","""",sampler,223,194397,0.0-6.0-217.0,"""","""","""","""","""","""","""","""","""","""","""","""","2021-08-17 18:03:58",37.47.61.64,"Mozilla/5.0 (Windows NT 10.0; Win64; x64; rv:91.0) Gecko/20100101 Firefox/91.0",,Firefox,91.0,Windows,10.0,5f461dd6c139dd6b46c7596cbd57cd79
225,1,"""","""","""","""","""",sampler,224,194397,0.0-6.0-218.0,"""","""","""","""","""","""","""","""","""","""","""","""","2021-08-17 18:03:58",37.47.61.64,"Mozilla/5.0 (Windows NT 10.0; Win64; x64; rv:91.0) Gecko/20100101 Firefox/91.0",,Firefox,91.0,Windows,10.0,5f461dd6c139dd6b46c7596cbd57cd79
225,1,"""","""","""","""","""",sampler,225,194397,0.0-6.0-219.0,"""","""","""","""","""","""","""","""","""","""","""","""","2021-08-17 18:03:58",37.47.61.64,"Mozilla/5.0 (Windows NT 10.0; Win64; x64; rv:91.0) Gecko/20100101 Firefox/91.0",,Firefox,91.0,Windows,10.0,5f461dd6c139dd6b46c7596cbd57cd79
225,1,"""","""","""","""","""",sampler,226,194397,0.0-6.0-220.0,"""","""","""","""","""","""","""","""","""","""","""","""","2021-08-17 18:03:58",37.47.61.64,"Mozilla/5.0 (Windows NT 10.0; Win64; x64; rv:91.0) Gecko/20100101 Firefox/91.0",,Firefox,91.0,Windows,10.0,5f461dd6c139dd6b46c7596cbd57cd79
225,1,"""","""","""","""","""",sampler,227,194397,0.0-6.0-221.0,"""","""","""","""","""","""","""","""","""","""","""","""","2021-08-17 18:03:58",37.47.61.64,"Mozilla/5.0 (Windows NT 10.0; Win64; x64; rv:91.0) Gecko/20100101 Firefox/91.0",,Firefox,91.0,Windows,10.0,5f461dd6c139dd6b46c7596cbd57cd79
225,1,"""","""","""","""","""",sampler,228,194397,0.0-6.0-222.0,"""","""","""","""","""","""","""","""","""","""","""","""","2021-08-17 18:03:58",37.47.61.64,"Mozilla/5.0 (Windows NT 10.0; Win64; x64; rv:91.0) Gecko/20100101 Firefox/91.0",,Firefox,91.0,Windows,10.0,5f461dd6c139dd6b46c7596cbd57cd79
225,1,"""","""","""","""","""",sampler,229,194397,0.0-6.0-223.0,"""","""","""","""","""","""","""","""","""","""","""","""","2021-08-17 18:03:58",37.47.61.64,"Mozilla/5.0 (Windows NT 10.0; Win64; x64; rv:91.0) Gecko/20100101 Firefox/91.0",,Firefox,91.0,Windows,10.0,5f461dd6c139dd6b46c7596cbd57cd79
225,1,"""","""","""","""","""",sampler,230,194398,0.0-6.0-224.0,"""","""","""","""","""","""","""","""","""","""","""","""","2021-08-17 18:03:58",37.47.61.64,"Mozilla/5.0 (Windows NT 10.0; Win64; x64; rv:91.0) Gecko/20100101 Firefox/91.0",,Firefox,91.0,Windows,10.0,5f461dd6c139dd6b46c7596cbd57cd79
225,1,"""","""","""","""","""",sampler,231,194398,0.0-6.0-225.0,"""","""","""","""","""","""","""","""","""","""","""","""","2021-08-17 18:03:58",37.47.61.64,"Mozilla/5.0 (Windows NT 10.0; Win64; x64; rv:91.0) Gecko/20100101 Firefox/91.0",,Firefox,91.0,Windows,10.0,5f461dd6c139dd6b46c7596cbd57cd79
225,1,"""","""","""","""","""",sampler,232,194398,0.0-6.0-226.0,"""","""","""","""","""","""","""","""","""","""","""","""","2021-08-17 18:03:58",37.47.61.64,"Mozilla/5.0 (Windows NT 10.0; Win64; x64; rv:91.0) Gecko/20100101 Firefox/91.0",,Firefox,91.0,Windows,10.0,5f461dd6c139dd6b46c7596cbd57cd79
225,1,"""","""","""","""","""",sampler,233,194398,0.0-6.0-227.0,"""","""","""","""","""","""","""","""","""","""","""","""","2021-08-17 18:03:58",37.47.61.64,"Mozilla/5.0 (Windows NT 10.0; Win64; x64; rv:91.0) Gecko/20100101 Firefox/91.0",,Firefox,91.0,Windows,10.0,5f461dd6c139dd6b46c7596cbd57cd79
225,1,"""","""","""","""","""",sampler,234,194398,0.0-6.0-228.0,"""","""","""","""","""","""","""","""","""","""","""","""","2021-08-17 18:03:58",37.47.61.64,"Mozilla/5.0 (Windows NT 10.0; Win64; x64; rv:91.0) Gecko/20100101 Firefox/91.0",,Firefox,91.0,Windows,10.0,5f461dd6c139dd6b46c7596cbd57cd79
225,1,"""","""","""","""","""",sampler,235,194398,0.0-6.0-229.0,"""","""","""","""","""","""","""","""","""","""","""","""","2021-08-17 18:03:58",37.47.61.64,"Mozilla/5.0 (Windows NT 10.0; Win64; x64; rv:91.0) Gecko/20100101 Firefox/91.0",,Firefox,91.0,Windows,10.0,5f461dd6c139dd6b46c7596cbd57cd79
225,1,"""","""","""","""","""",sampler,236,194398,0.0-6.0-230.0,"""","""","""","""","""","""","""","""","""","""","""","""","2021-08-17 18:03:58",37.47.61.64,"Mozilla/5.0 (Windows NT 10.0; Win64; x64; rv:91.0) Gecko/20100101 Firefox/91.0",,Firefox,91.0,Windows,10.0,5f461dd6c139dd6b46c7596cbd57cd79
225,1,"""","""","""","""","""",sampler,237,194399,0.0-6.0-231.0,"""","""","""","""","""","""","""","""","""","""","""","""","2021-08-17 18:03:58",37.47.61.64,"Mozilla/5.0 (Windows NT 10.0; Win64; x64; rv:91.0) Gecko/20100101 Firefox/91.0",,Firefox,91.0,Windows,10.0,5f461dd6c139dd6b46c7596cbd57cd79
225,1,"""","""","""","""","""",sampler,238,194399,0.0-6.0-232.0,"""","""","""","""","""","""","""","""","""","""","""","""","2021-08-17 18:03:58",37.47.61.64,"Mozilla/5.0 (Windows NT 10.0; Win64; x64; rv:91.0) Gecko/20100101 Firefox/91.0",,Firefox,91.0,Windows,10.0,5f461dd6c139dd6b46c7596cbd57cd79
225,1,"""","""","""","""","""",sampler,239,194399,0.0-6.0-233.0,"""","""","""","""","""","""","""","""","""","""","""","""","2021-08-17 18:03:58",37.47.61.64,"Mozilla/5.0 (Windows NT 10.0; Win64; x64; rv:91.0) Gecko/20100101 Firefox/91.0",,Firefox,91.0,Windows,10.0,5f461dd6c139dd6b46c7596cbd57cd79
225,1,"""","""","""","""","""",sampler,240,194399,0.0-6.0-234.0,"""","""","""","""","""","""","""","""","""","""","""","""","2021-08-17 18:03:58",37.47.61.64,"Mozilla/5.0 (Windows NT 10.0; Win64; x64; rv:91.0) Gecko/20100101 Firefox/91.0",,Firefox,91.0,Windows,10.0,5f461dd6c139dd6b46c7596cbd57cd79
225,1,"""","""","""","""","""",sampler,241,194399,0.0-6.0-235.0,"""","""","""","""","""","""","""","""","""","""","""","""","2021-08-17 18:03:58",37.47.61.64,"Mozilla/5.0 (Windows NT 10.0; Win64; x64; rv:91.0) Gecko/20100101 Firefox/91.0",,Firefox,91.0,Windows,10.0,5f461dd6c139dd6b46c7596cbd57cd79
225,1,"""","""","""","""","""",sampler,242,194399,0.0-6.0-236.0,"""","""","""","""","""","""","""","""","""","""","""","""","2021-08-17 18:03:58",37.47.61.64,"Mozilla/5.0 (Windows NT 10.0; Win64; x64; rv:91.0) Gecko/20100101 Firefox/91.0",,Firefox,91.0,Windows,10.0,5f461dd6c139dd6b46c7596cbd57cd79
225,1,"""","""","""","""","""",sampler,243,194399,0.0-6.0-237.0,"""","""","""","""","""","""","""","""","""","""","""","""","2021-08-17 18:03:58",37.47.61.64,"Mozilla/5.0 (Windows NT 10.0; Win64; x64; rv:91.0) Gecko/20100101 Firefox/91.0",,Firefox,91.0,Windows,10.0,5f461dd6c139dd6b46c7596cbd57cd79
225,1,"""","""","""","""","""",sampler,244,194399,0.0-6.0-238.0,"""","""","""","""","""","""","""","""","""","""","""","""","2021-08-17 18:03:58",37.47.61.64,"Mozilla/5.0 (Windows NT 10.0; Win64; x64; rv:91.0) Gecko/20100101 Firefox/91.0",,Firefox,91.0,Windows,10.0,5f461dd6c139dd6b46c7596cbd57cd79
225,1,"""","""","""","""","""",sampler,245,194399,0.0-6.0-239.0,"""","""","""","""","""","""","""","""","""","""","""","""","2021-08-17 18:03:58",37.47.61.64,"Mozilla/5.0 (Windows NT 10.0; Win64; x64; rv:91.0) Gecko/20100101 Firefox/91.0",,Firefox,91.0,Windows,10.0,5f461dd6c139dd6b46c7596cbd57cd79
225,1,"""","""","""","""","""",sampler,246,194400,0.0-6.0-240.0,"""","""","""","""","""","""","""","""","""","""","""","""","2021-08-17 18:03:58",37.47.61.64,"Mozilla/5.0 (Windows NT 10.0; Win64; x64; rv:91.0) Gecko/20100101 Firefox/91.0",,Firefox,91.0,Windows,10.0,5f461dd6c139dd6b46c7596cbd57cd79
225,1,"""","""","""","""","""",sampler,247,194400,0.0-6.0-241.0,"""","""","""","""","""","""","""","""","""","""","""","""","2021-08-17 18:03:58",37.47.61.64,"Mozilla/5.0 (Windows NT 10.0; Win64; x64; rv:91.0) Gecko/20100101 Firefox/91.0",,Firefox,91.0,Windows,10.0,5f461dd6c139dd6b46c7596cbd57cd79
225,1,"""","""","""","""","""",sampler,248,194400,0.0-6.0-242.0,"""","""","""","""","""","""","""","""","""","""","""","""","2021-08-17 18:03:58",37.47.61.64,"Mozilla/5.0 (Windows NT 10.0; Win64; x64; rv:91.0) Gecko/20100101 Firefox/91.0",,Firefox,91.0,Windows,10.0,5f461dd6c139dd6b46c7596cbd57cd79
225,1,"""","""","""","""","""",sampler,249,194400,0.0-6.0-243.0,"""","""","""","""","""","""","""","""","""","""","""","""","2021-08-17 18:03:58",37.47.61.64,"Mozilla/5.0 (Windows NT 10.0; Win64; x64; rv:91.0) Gecko/20100101 Firefox/91.0",,Firefox,91.0,Windows,10.0,5f461dd6c139dd6b46c7596cbd57cd79
225,1,"""","""","""","""","""",sampler,250,194400,0.0-6.0-244.0,"""","""","""","""","""","""","""","""","""","""","""","""","2021-08-17 18:03:58",37.47.61.64,"Mozilla/5.0 (Windows NT 10.0; Win64; x64; rv:91.0) Gecko/20100101 Firefox/91.0",,Firefox,91.0,Windows,10.0,5f461dd6c139dd6b46c7596cbd57cd79
225,1,"""","""","""","""","""",sampler,251,194400,0.0-6.0-245.0,"""","""","""","""","""","""","""","""","""","""","""","""","2021-08-17 18:03:58",37.47.61.64,"Mozilla/5.0 (Windows NT 10.0; Win64; x64; rv:91.0) Gecko/20100101 Firefox/91.0",,Firefox,91.0,Windows,10.0,5f461dd6c139dd6b46c7596cbd57cd79
225,1,"""","""","""","""","""",sampler,252,194400,0.0-6.0-246.0,"""","""","""","""","""","""","""","""","""","""","""","""","2021-08-17 18:03:58",37.47.61.64,"Mozilla/5.0 (Windows NT 10.0; Win64; x64; rv:91.0) Gecko/20100101 Firefox/91.0",,Firefox,91.0,Windows,10.0,5f461dd6c139dd6b46c7596cbd57cd79
225,1,"""","""","""","""","""",sampler,253,194400,0.0-6.0-247.0,"""","""","""","""","""","""","""","""","""","""","""","""","2021-08-17 18:03:58",37.47.61.64,"Mozilla/5.0 (Windows NT 10.0; Win64; x64; rv:91.0) Gecko/20100101 Firefox/91.0",,Firefox,91.0,Windows,10.0,5f461dd6c139dd6b46c7596cbd57cd79
225,1,"""","""","""","""","""",sampler,254,194400,0.0-6.0-248.0,"""","""","""","""","""","""","""","""","""","""","""","""","2021-08-17 18:03:58",37.47.61.64,"Mozilla/5.0 (Windows NT 10.0; Win64; x64; rv:91.0) Gecko/20100101 Firefox/91.0",,Firefox,91.0,Windows,10.0,5f461dd6c139dd6b46c7596cbd57cd79
225,1,"""","""","""","""","""",sampler,255,194401,0.0-6.0-249.0,"""","""","""","""","""","""","""","""","""","""","""","""","2021-08-17 18:03:58",37.47.61.64,"Mozilla/5.0 (Windows NT 10.0; Win64; x64; rv:91.0) Gecko/20100101 Firefox/91.0",,Firefox,91.0,Windows,10.0,5f461dd6c139dd6b46c7596cbd57cd79
225,1,"""","""","""","""","""",sampler,256,194401,0.0-6.0-250.0,"""","""","""","""","""","""","""","""","""","""","""","""","2021-08-17 18:03:58",37.47.61.64,"Mozilla/5.0 (Windows NT 10.0; Win64; x64; rv:91.0) Gecko/20100101 Firefox/91.0",,Firefox,91.0,Windows,10.0,5f461dd6c139dd6b46c7596cbd57cd79
225,1,"""","""","""","""","""",sampler,257,194401,0.0-6.0-251.0,"""","""","""","""","""","""","""","""","""","""","""","""","2021-08-17 18:03:58",37.47.61.64,"Mozilla/5.0 (Windows NT 10.0; Win64; x64; rv:91.0) Gecko/20100101 Firefox/91.0",,Firefox,91.0,Windows,10.0,5f461dd6c139dd6b46c7596cbd57cd79
225,1,"""","""","""","""","""",sampler,258,194401,0.0-6.0-252.0,"""","""","""","""","""","""","""","""","""","""","""","""","2021-08-17 18:03:58",37.47.61.64,"Mozilla/5.0 (Windows NT 10.0; Win64; x64; rv:91.0) Gecko/20100101 Firefox/91.0",,Firefox,91.0,Windows,10.0,5f461dd6c139dd6b46c7596cbd57cd79
225,1,"""","""","""","""","""",sampler,259,194401,0.0-6.0-253.0,"""","""","""","""","""","""","""","""","""","""","""","""","2021-08-17 18:03:58",37.47.61.64,"Mozilla/5.0 (Windows NT 10.0; Win64; x64; rv:91.0) Gecko/20100101 Firefox/91.0",,Firefox,91.0,Windows,10.0,5f461dd6c139dd6b46c7596cbd57cd79
225,1,"""","""","""","""","""",sampler,260,194401,0.0-6.0-254.0,"""","""","""","""","""","""","""","""","""","""","""","""","2021-08-17 18:03:58",37.47.61.64,"Mozilla/5.0 (Windows NT 10.0; Win64; x64; rv:91.0) Gecko/20100101 Firefox/91.0",,Firefox,91.0,Windows,10.0,5f461dd6c139dd6b46c7596cbd57cd79
225,1,"""","""","""","""","""",sampler,261,194401,0.0-6.0-255.0,"""","""","""","""","""","""","""","""","""","""","""","""","2021-08-17 18:03:58",37.47.61.64,"Mozilla/5.0 (Windows NT 10.0; Win64; x64; rv:91.0) Gecko/20100101 Firefox/91.0",,Firefox,91.0,Windows,10.0,5f461dd6c139dd6b46c7596cbd57cd79
225,1,"""","""","""","""","""",sampler,262,194401,0.0-6.0-256.0,"""","""","""","""","""","""","""","""","""","""","""","""","2021-08-17 18:03:58",37.47.61.64,"Mozilla/5.0 (Windows NT 10.0; Win64; x64; rv:91.0) Gecko/20100101 Firefox/91.0",,Firefox,91.0,Windows,10.0,5f461dd6c139dd6b46c7596cbd57cd79
225,1,"""","""","""","""","""",sampler,263,194401,0.0-6.0-257.0,"""","""","""","""","""","""","""","""","""","""","""","""","2021-08-17 18:03:58",37.47.61.64,"Mozilla/5.0 (Windows NT 10.0; Win64; x64; rv:91.0) Gecko/20100101 Firefox/91.0",,Firefox,91.0,Windows,10.0,5f461dd6c139dd6b46c7596cbd57cd79
225,1,"""","""","""","""","""",sampler,264,194401,0.0-6.0-258.0,"""","""","""","""","""","""","""","""","""","""","""","""","2021-08-17 18:03:58",37.47.61.64,"Mozilla/5.0 (Windows NT 10.0; Win64; x64; rv:91.0) Gecko/20100101 Firefox/91.0",,Firefox,91.0,Windows,10.0,5f461dd6c139dd6b46c7596cbd57cd79
225,1,"""","""","""","""","""",sampler,265,194402,0.0-6.0-259.0,"""","""","""","""","""","""","""","""","""","""","""","""","2021-08-17 18:03:58",37.47.61.64,"Mozilla/5.0 (Windows NT 10.0; Win64; x64; rv:91.0) Gecko/20100101 Firefox/91.0",,Firefox,91.0,Windows,10.0,5f461dd6c139dd6b46c7596cbd57cd79
225,1,"""","""","""","""","""",sampler,266,194402,0.0-6.0-260.0,"""","""","""","""","""","""","""","""","""","""","""","""","2021-08-17 18:03:58",37.47.61.64,"Mozilla/5.0 (Windows NT 10.0; Win64; x64; rv:91.0) Gecko/20100101 Firefox/91.0",,Firefox,91.0,Windows,10.0,5f461dd6c139dd6b46c7596cbd57cd79
225,1,"""","""","""","""","""",sampler,267,194402,0.0-6.0-261.0,"""","""","""","""","""","""","""","""","""","""","""","""","2021-08-17 18:03:58",37.47.61.64,"Mozilla/5.0 (Windows NT 10.0; Win64; x64; rv:91.0) Gecko/20100101 Firefox/91.0",,Firefox,91.0,Windows,10.0,5f461dd6c139dd6b46c7596cbd57cd79
225,1,"""","""","""","""","""",sampler,268,194402,0.0-6.0-262.0,"""","""","""","""","""","""","""","""","""","""","""","""","2021-08-17 18:03:58",37.47.61.64,"Mozilla/5.0 (Windows NT 10.0; Win64; x64; rv:91.0) Gecko/20100101 Firefox/91.0",,Firefox,91.0,Windows,10.0,5f461dd6c139dd6b46c7596cbd57cd79
225,1,"""","""","""","""","""",sampler,269,194402,0.0-6.0-263.0,"""","""","""","""","""","""","""","""","""","""","""","""","2021-08-17 18:03:58",37.47.61.64,"Mozilla/5.0 (Windows NT 10.0; Win64; x64; rv:91.0) Gecko/20100101 Firefox/91.0",,Firefox,91.0,Windows,10.0,5f461dd6c139dd6b46c7596cbd57cd79
225,1,"""","""","""","""","""",sampler,270,194402,0.0-6.0-264.0,"""","""","""","""","""","""","""","""","""","""","""","""","2021-08-17 18:03:58",37.47.61.64,"Mozilla/5.0 (Windows NT 10.0; Win64; x64; rv:91.0) Gecko/20100101 Firefox/91.0",,Firefox,91.0,Windows,10.0,5f461dd6c139dd6b46c7596cbd57cd79
225,1,"""","""","""","""","""",sampler,271,194402,0.0-6.0-265.0,"""","""","""","""","""","""","""","""","""","""","""","""","2021-08-17 18:03:58",37.47.61.64,"Mozilla/5.0 (Windows NT 10.0; Win64; x64; rv:91.0) Gecko/20100101 Firefox/91.0",,Firefox,91.0,Windows,10.0,5f461dd6c139dd6b46c7596cbd57cd79
225,1,"""","""","""","""","""",sampler,272,194402,0.0-6.0-266.0,"""","""","""","""","""","""","""","""","""","""","""","""","2021-08-17 18:03:58",37.47.61.64,"Mozilla/5.0 (Windows NT 10.0; Win64; x64; rv:91.0) Gecko/20100101 Firefox/91.0",,Firefox,91.0,Windows,10.0,5f461dd6c139dd6b46c7596cbd57cd79
225,1,"""","""","""","""","""",sampler,273,194402,0.0-6.0-267.0,"""","""","""","""","""","""","""","""","""","""","""","""","2021-08-17 18:03:58",37.47.61.64,"Mozilla/5.0 (Windows NT 10.0; Win64; x64; rv:91.0) Gecko/20100101 Firefox/91.0",,Firefox,91.0,Windows,10.0,5f461dd6c139dd6b46c7596cbd57cd79
225,1,"""","""","""","""","""",sampler,274,194403,0.0-6.0-268.0,"""","""","""","""","""","""","""","""","""","""","""","""","2021-08-17 18:03:58",37.47.61.64,"Mozilla/5.0 (Windows NT 10.0; Win64; x64; rv:91.0) Gecko/20100101 Firefox/91.0",,Firefox,91.0,Windows,10.0,5f461dd6c139dd6b46c7596cbd57cd79
225,1,"""","""","""","""","""",sampler,275,194403,0.0-6.0-269.0,"""","""","""","""","""","""","""","""","""","""","""","""","2021-08-17 18:03:58",37.47.61.64,"Mozilla/5.0 (Windows NT 10.0; Win64; x64; rv:91.0) Gecko/20100101 Firefox/91.0",,Firefox,91.0,Windows,10.0,5f461dd6c139dd6b46c7596cbd57cd79
225,1,"""","""","""","""","""",sampler,276,194403,0.0-6.0-270.0,"""","""","""","""","""","""","""","""","""","""","""","""","2021-08-17 18:03:58",37.47.61.64,"Mozilla/5.0 (Windows NT 10.0; Win64; x64; rv:91.0) Gecko/20100101 Firefox/91.0",,Firefox,91.0,Windows,10.0,5f461dd6c139dd6b46c7596cbd57cd79
225,1,"""","""","""","""","""",sampler,277,194403,0.0-6.0-271.0,"""","""","""","""","""","""","""","""","""","""","""","""","2021-08-17 18:03:58",37.47.61.64,"Mozilla/5.0 (Windows NT 10.0; Win64; x64; rv:91.0) Gecko/20100101 Firefox/91.0",,Firefox,91.0,Windows,10.0,5f461dd6c139dd6b46c7596cbd57cd79
225,1,"""","""","""","""","""",sampler,278,194403,0.0-6.0-272.0,"""","""","""","""","""","""","""","""","""","""","""","""","2021-08-17 18:03:58",37.47.61.64,"Mozilla/5.0 (Windows NT 10.0; Win64; x64; rv:91.0) Gecko/20100101 Firefox/91.0",,Firefox,91.0,Windows,10.0,5f461dd6c139dd6b46c7596cbd57cd79
225,1,"""","""","""","""","""",sampler,279,194403,0.0-6.0-273.0,"""","""","""","""","""","""","""","""","""","""","""","""","2021-08-17 18:03:58",37.47.61.64,"Mozilla/5.0 (Windows NT 10.0; Win64; x64; rv:91.0) Gecko/20100101 Firefox/91.0",,Firefox,91.0,Windows,10.0,5f461dd6c139dd6b46c7596cbd57cd79
225,1,"""","""","""","""","""",sampler,280,194404,0.0-6.0-274.0,"""","""","""","""","""","""","""","""","""","""","""","""","2021-08-17 18:03:58",37.47.61.64,"Mozilla/5.0 (Windows NT 10.0; Win64; x64; rv:91.0) Gecko/20100101 Firefox/91.0",,Firefox,91.0,Windows,10.0,5f461dd6c139dd6b46c7596cbd57cd79
225,1,"""","""","""","""","""",sampler,281,194404,0.0-6.0-275.0,"""","""","""","""","""","""","""","""","""","""","""","""","2021-08-17 18:03:58",37.47.61.64,"Mozilla/5.0 (Windows NT 10.0; Win64; x64; rv:91.0) Gecko/20100101 Firefox/91.0",,Firefox,91.0,Windows,10.0,5f461dd6c139dd6b46c7596cbd57cd79
225,1,"""","""","""","""","""",sampler,282,194404,0.0-6.0-276.0,"""","""","""","""","""","""","""","""","""","""","""","""","2021-08-17 18:03:58",37.47.61.64,"Mozilla/5.0 (Windows NT 10.0; Win64; x64; rv:91.0) Gecko/20100101 Firefox/91.0",,Firefox,91.0,Windows,10.0,5f461dd6c139dd6b46c7596cbd57cd79
225,1,"""","""","""","""","""",sampler,283,194404,0.0-6.0-277.0,"""","""","""","""","""","""","""","""","""","""","""","""","2021-08-17 18:03:58",37.47.61.64,"Mozilla/5.0 (Windows NT 10.0; Win64; x64; rv:91.0) Gecko/20100101 Firefox/91.0",,Firefox,91.0,Windows,10.0,5f461dd6c139dd6b46c7596cbd57cd79
225,1,"""","""","""","""","""",sampler,284,194404,0.0-6.0-278.0,"""","""","""","""","""","""","""","""","""","""","""","""","2021-08-17 18:03:58",37.47.61.64,"Mozilla/5.0 (Windows NT 10.0; Win64; x64; rv:91.0) Gecko/20100101 Firefox/91.0",,Firefox,91.0,Windows,10.0,5f461dd6c139dd6b46c7596cbd57cd79
225,1,"""","""","""","""","""",sampler,285,194404,0.0-6.0-279.0,"""","""","""","""","""","""","""","""","""","""","""","""","2021-08-17 18:03:58",37.47.61.64,"Mozilla/5.0 (Windows NT 10.0; Win64; x64; rv:91.0) Gecko/20100101 Firefox/91.0",,Firefox,91.0,Windows,10.0,5f461dd6c139dd6b46c7596cbd57cd79
225,1,"""","""","""","""","""",sampler,286,194404,0.0-6.0-280.0,"""","""","""","""","""","""","""","""","""","""","""","""","2021-08-17 18:03:58",37.47.61.64,"Mozilla/5.0 (Windows NT 10.0; Win64; x64; rv:91.0) Gecko/20100101 Firefox/91.0",,Firefox,91.0,Windows,10.0,5f461dd6c139dd6b46c7596cbd57cd79
225,1,"""","""","""","""","""",sampler,287,194404,0.0-6.0-281.0,"""","""","""","""","""","""","""","""","""","""","""","""","2021-08-17 18:03:58",37.47.61.64,"Mozilla/5.0 (Windows NT 10.0; Win64; x64; rv:91.0) Gecko/20100101 Firefox/91.0",,Firefox,91.0,Windows,10.0,5f461dd6c139dd6b46c7596cbd57cd79
225,1,"""","""","""","""","""",sampler,288,194404,0.0-6.0-282.0,"""","""","""","""","""","""","""","""","""","""","""","""","2021-08-17 18:03:58",37.47.61.64,"Mozilla/5.0 (Windows NT 10.0; Win64; x64; rv:91.0) Gecko/20100101 Firefox/91.0",,Firefox,91.0,Windows,10.0,5f461dd6c139dd6b46c7596cbd57cd79
225,1,"""","""","""","""","""",sampler,289,194404,0.0-6.0-283.0,"""","""","""","""","""","""","""","""","""","""","""","""","2021-08-17 18:03:58",37.47.61.64,"Mozilla/5.0 (Windows NT 10.0; Win64; x64; rv:91.0) Gecko/20100101 Firefox/91.0",,Firefox,91.0,Windows,10.0,5f461dd6c139dd6b46c7596cbd57cd79
225,1,"""","""","""","""","""",sampler,290,194404,0.0-6.0-284.0,"""","""","""","""","""","""","""","""","""","""","""","""","2021-08-17 18:03:58",37.47.61.64,"Mozilla/5.0 (Windows NT 10.0; Win64; x64; rv:91.0) Gecko/20100101 Firefox/91.0",,Firefox,91.0,Windows,10.0,5f461dd6c139dd6b46c7596cbd57cd79
225,1,"""","""","""","""","""",sampler,291,194405,0.0-6.0-285.0,"""","""","""","""","""","""","""","""","""","""","""","""","2021-08-17 18:03:58",37.47.61.64,"Mozilla/5.0 (Windows NT 10.0; Win64; x64; rv:91.0) Gecko/20100101 Firefox/91.0",,Firefox,91.0,Windows,10.0,5f461dd6c139dd6b46c7596cbd57cd79
225,1,"""","""","""","""","""",sampler,292,194405,0.0-6.0-286.0,"""","""","""","""","""","""","""","""","""","""","""","""","2021-08-17 18:03:58",37.47.61.64,"Mozilla/5.0 (Windows NT 10.0; Win64; x64; rv:91.0) Gecko/20100101 Firefox/91.0",,Firefox,91.0,Windows,10.0,5f461dd6c139dd6b46c7596cbd57cd79
225,1,"""","""","""","""","""",sampler,293,194405,0.0-6.0-287.0,"""","""","""","""","""","""","""","""","""","""","""","""","2021-08-17 18:03:58",37.47.61.64,"Mozilla/5.0 (Windows NT 10.0; Win64; x64; rv:91.0) Gecko/20100101 Firefox/91.0",,Firefox,91.0,Windows,10.0,5f461dd6c139dd6b46c7596cbd57cd79
225,1,"""","""","""","""","""",sampler,294,194405,0.0-6.0-288.0,"""","""","""","""","""","""","""","""","""","""","""","""","2021-08-17 18:03:58",37.47.61.64,"Mozilla/5.0 (Windows NT 10.0; Win64; x64; rv:91.0) Gecko/20100101 Firefox/91.0",,Firefox,91.0,Windows,10.0,5f461dd6c139dd6b46c7596cbd57cd79
225,1,"""","""","""","""","""",sampler,295,194405,0.0-6.0-289.0,"""","""","""","""","""","""","""","""","""","""","""","""","2021-08-17 18:03:58",37.47.61.64,"Mozilla/5.0 (Windows NT 10.0; Win64; x64; rv:91.0) Gecko/20100101 Firefox/91.0",,Firefox,91.0,Windows,10.0,5f461dd6c139dd6b46c7596cbd57cd79
225,1,"""","""","""","""","""",sampler,296,194405,0.0-6.0-290.0,"""","""","""","""","""","""","""","""","""","""","""","""","2021-08-17 18:03:58",37.47.61.64,"Mozilla/5.0 (Windows NT 10.0; Win64; x64; rv:91.0) Gecko/20100101 Firefox/91.0",,Firefox,91.0,Windows,10.0,5f461dd6c139dd6b46c7596cbd57cd79
225,1,"""","""","""","""","""",sampler,297,194405,0.0-6.0-291.0,"""","""","""","""","""","""","""","""","""","""","""","""","2021-08-17 18:03:58",37.47.61.64,"Mozilla/5.0 (Windows NT 10.0; Win64; x64; rv:91.0) Gecko/20100101 Firefox/91.0",,Firefox,91.0,Windows,10.0,5f461dd6c139dd6b46c7596cbd57cd79
225,1,"""","""","""","""","""",sampler,298,194405,0.0-6.0-292.0,"""","""","""","""","""","""","""","""","""","""","""","""","2021-08-17 18:03:58",37.47.61.64,"Mozilla/5.0 (Windows NT 10.0; Win64; x64; rv:91.0) Gecko/20100101 Firefox/91.0",,Firefox,91.0,Windows,10.0,5f461dd6c139dd6b46c7596cbd57cd79
225,1,"""","""","""","""","""",sampler,299,194406,0.0-6.0-293.0,"""","""","""","""","""","""","""","""","""","""","""","""","2021-08-17 18:03:58",37.47.61.64,"Mozilla/5.0 (Windows NT 10.0; Win64; x64; rv:91.0) Gecko/20100101 Firefox/91.0",,Firefox,91.0,Windows,10.0,5f461dd6c139dd6b46c7596cbd57cd79
225,1,"""","""","""","""","""",sampler,300,194406,0.0-6.0-294.0,"""","""","""","""","""","""","""","""","""","""","""","""","2021-08-17 18:03:58",37.47.61.64,"Mozilla/5.0 (Windows NT 10.0; Win64; x64; rv:91.0) Gecko/20100101 Firefox/91.0",,Firefox,91.0,Windows,10.0,5f461dd6c139dd6b46c7596cbd57cd79
225,1,"""","""","""","""","""",sampler,301,194406,0.0-6.0-295.0,"""","""","""","""","""","""","""","""","""","""","""","""","2021-08-17 18:03:58",37.47.61.64,"Mozilla/5.0 (Windows NT 10.0; Win64; x64; rv:91.0) Gecko/20100101 Firefox/91.0",,Firefox,91.0,Windows,10.0,5f461dd6c139dd6b46c7596cbd57cd79
225,1,"""","""","""","""","""",sampler,302,194406,0.0-6.0-296.0,"""","""","""","""","""","""","""","""","""","""","""","""","2021-08-17 18:03:58",37.47.61.64,"Mozilla/5.0 (Windows NT 10.0; Win64; x64; rv:91.0) Gecko/20100101 Firefox/91.0",,Firefox,91.0,Windows,10.0,5f461dd6c139dd6b46c7596cbd57cd79
225,1,"""","""","""","""","""",sampler,303,194406,0.0-6.0-297.0,"""","""","""","""","""","""","""","""","""","""","""","""","2021-08-17 18:03:58",37.47.61.64,"Mozilla/5.0 (Windows NT 10.0; Win64; x64; rv:91.0) Gecko/20100101 Firefox/91.0",,Firefox,91.0,Windows,10.0,5f461dd6c139dd6b46c7596cbd57cd79
225,1,"""","""","""","""","""",sampler,304,194406,0.0-6.0-298.0,"""","""","""","""","""","""","""","""","""","""","""","""","2021-08-17 18:03:58",37.47.61.64,"Mozilla/5.0 (Windows NT 10.0; Win64; x64; rv:91.0) Gecko/20100101 Firefox/91.0",,Firefox,91.0,Windows,10.0,5f461dd6c139dd6b46c7596cbd57cd79
225,1,"""","""","""","""","""",sampler,305,194406,0.0-6.0-299.0,"""","""","""","""","""","""","""","""","""","""","""","""","2021-08-17 18:03:58",37.47.61.64,"Mozilla/5.0 (Windows NT 10.0; Win64; x64; rv:91.0) Gecko/20100101 Firefox/91.0",,Firefox,91.0,Windows,10.0,5f461dd6c139dd6b46c7596cbd57cd79
225,1,"""","""","""","""","""",sampler,306,194406,0.0-6.0-300.0,"""","""","""","""","""","""","""","""","""","""","""","""","2021-08-17 18:03:58",37.47.61.64,"Mozilla/5.0 (Windows NT 10.0; Win64; x64; rv:91.0) Gecko/20100101 Firefox/91.0",,Firefox,91.0,Windows,10.0,5f461dd6c139dd6b46c7596cbd57cd79
225,1,"""","""","""","""","""",sampler,307,194406,0.0-6.0-301.0,"""","""","""","""","""","""","""","""","""","""","""","""","2021-08-17 18:03:58",37.47.61.64,"Mozilla/5.0 (Windows NT 10.0; Win64; x64; rv:91.0) Gecko/20100101 Firefox/91.0",,Firefox,91.0,Windows,10.0,5f461dd6c139dd6b46c7596cbd57cd79
225,1,"""","""","""","""","""",sampler,308,194406,0.0-6.0-302.0,"""","""","""","""","""","""","""","""","""","""","""","""","2021-08-17 18:03:58",37.47.61.64,"Mozilla/5.0 (Windows NT 10.0; Win64; x64; rv:91.0) Gecko/20100101 Firefox/91.0",,Firefox,91.0,Windows,10.0,5f461dd6c139dd6b46c7596cbd57cd79
225,1,"""","""","""","""","""",sampler,309,194406,0.0-6.0-303.0,"""","""","""","""","""","""","""","""","""","""","""","""","2021-08-17 18:03:58",37.47.61.64,"Mozilla/5.0 (Windows NT 10.0; Win64; x64; rv:91.0) Gecko/20100101 Firefox/91.0",,Firefox,91.0,Windows,10.0,5f461dd6c139dd6b46c7596cbd57cd79
225,1,"""","""","""","""","""",sampler,310,194407,0.0-6.0-304.0,"""","""","""","""","""","""","""","""","""","""","""","""","2021-08-17 18:03:58",37.47.61.64,"Mozilla/5.0 (Windows NT 10.0; Win64; x64; rv:91.0) Gecko/20100101 Firefox/91.0",,Firefox,91.0,Windows,10.0,5f461dd6c139dd6b46c7596cbd57cd79
225,1,"""","""","""","""","""",sampler,311,194407,0.0-6.0-305.0,"""","""","""","""","""","""","""","""","""","""","""","""","2021-08-17 18:03:58",37.47.61.64,"Mozilla/5.0 (Windows NT 10.0; Win64; x64; rv:91.0) Gecko/20100101 Firefox/91.0",,Firefox,91.0,Windows,10.0,5f461dd6c139dd6b46c7596cbd57cd79
225,1,"""","""","""","""","""",sampler,312,194407,0.0-6.0-306.0,"""","""","""","""","""","""","""","""","""","""","""","""","2021-08-17 18:03:58",37.47.61.64,"Mozilla/5.0 (Windows NT 10.0; Win64; x64; rv:91.0) Gecko/20100101 Firefox/91.0",,Firefox,91.0,Windows,10.0,5f461dd6c139dd6b46c7596cbd57cd79
225,1,"""","""","""","""","""",sampler,313,194407,0.0-6.0-307.0,"""","""","""","""","""","""","""","""","""","""","""","""","2021-08-17 18:03:58",37.47.61.64,"Mozilla/5.0 (Windows NT 10.0; Win64; x64; rv:91.0) Gecko/20100101 Firefox/91.0",,Firefox,91.0,Windows,10.0,5f461dd6c139dd6b46c7596cbd57cd79
225,1,"""","""","""","""","""",sampler,314,194407,0.0-6.0-308.0,"""","""","""","""","""","""","""","""","""","""","""","""","2021-08-17 18:03:58",37.47.61.64,"Mozilla/5.0 (Windows NT 10.0; Win64; x64; rv:91.0) Gecko/20100101 Firefox/91.0",,Firefox,91.0,Windows,10.0,5f461dd6c139dd6b46c7596cbd57cd79
225,1,"""","""","""","""","""",sampler,315,194407,0.0-6.0-309.0,"""","""","""","""","""","""","""","""","""","""","""","""","2021-08-17 18:03:58",37.47.61.64,"Mozilla/5.0 (Windows NT 10.0; Win64; x64; rv:91.0) Gecko/20100101 Firefox/91.0",,Firefox,91.0,Windows,10.0,5f461dd6c139dd6b46c7596cbd57cd79
225,1,"""","""","""","""","""",sampler,316,194407,0.0-6.0-310.0,"""","""","""","""","""","""","""","""","""","""","""","""","2021-08-17 18:03:58",37.47.61.64,"Mozilla/5.0 (Windows NT 10.0; Win64; x64; rv:91.0) Gecko/20100101 Firefox/91.0",,Firefox,91.0,Windows,10.0,5f461dd6c139dd6b46c7596cbd57cd79
225,1,"""","""","""","""","""",sampler,317,194407,0.0-6.0-311.0,"""","""","""","""","""","""","""","""","""","""","""","""","2021-08-17 18:03:58",37.47.61.64,"Mozilla/5.0 (Windows NT 10.0; Win64; x64; rv:91.0) Gecko/20100101 Firefox/91.0",,Firefox,91.0,Windows,10.0,5f461dd6c139dd6b46c7596cbd57cd79
225,1,"""","""","""","""","""",sampler,318,194408,0.0-6.0-312.0,"""","""","""","""","""","""","""","""","""","""","""","""","2021-08-17 18:03:58",37.47.61.64,"Mozilla/5.0 (Windows NT 10.0; Win64; x64; rv:91.0) Gecko/20100101 Firefox/91.0",,Firefox,91.0,Windows,10.0,5f461dd6c139dd6b46c7596cbd57cd79
225,1,"""","""","""","""","""",sampler,319,194408,0.0-6.0-313.0,"""","""","""","""","""","""","""","""","""","""","""","""","2021-08-17 18:03:58",37.47.61.64,"Mozilla/5.0 (Windows NT 10.0; Win64; x64; rv:91.0) Gecko/20100101 Firefox/91.0",,Firefox,91.0,Windows,10.0,5f461dd6c139dd6b46c7596cbd57cd79
225,1,"""","""","""","""","""",sampler,320,194408,0.0-6.0-314.0,"""","""","""","""","""","""","""","""","""","""","""","""","2021-08-17 18:03:58",37.47.61.64,"Mozilla/5.0 (Windows NT 10.0; Win64; x64; rv:91.0) Gecko/20100101 Firefox/91.0",,Firefox,91.0,Windows,10.0,5f461dd6c139dd6b46c7596cbd57cd79
225,1,"""","""","""","""","""",sampler,321,194408,0.0-6.0-315.0,"""","""","""","""","""","""","""","""","""","""","""","""","2021-08-17 18:03:58",37.47.61.64,"Mozilla/5.0 (Windows NT 10.0; Win64; x64; rv:91.0) Gecko/20100101 Firefox/91.0",,Firefox,91.0,Windows,10.0,5f461dd6c139dd6b46c7596cbd57cd79
225,1,"""","""","""","""","""",sampler,322,194408,0.0-6.0-316.0,"""","""","""","""","""","""","""","""","""","""","""","""","2021-08-17 18:03:58",37.47.61.64,"Mozilla/5.0 (Windows NT 10.0; Win64; x64; rv:91.0) Gecko/20100101 Firefox/91.0",,Firefox,91.0,Windows,10.0,5f461dd6c139dd6b46c7596cbd57cd79
225,1,"""","""","""","""","""",sampler,323,194408,0.0-6.0-317.0,"""","""","""","""","""","""","""","""","""","""","""","""","2021-08-17 18:03:58",37.47.61.64,"Mozilla/5.0 (Windows NT 10.0; Win64; x64; rv:91.0) Gecko/20100101 Firefox/91.0",,Firefox,91.0,Windows,10.0,5f461dd6c139dd6b46c7596cbd57cd79
225,1,"""","""","""","""","""",sampler,324,194408,0.0-6.0-318.0,"""","""","""","""","""","""","""","""","""","""","""","""","2021-08-17 18:03:58",37.47.61.64,"Mozilla/5.0 (Windows NT 10.0; Win64; x64; rv:91.0) Gecko/20100101 Firefox/91.0",,Firefox,91.0,Windows,10.0,5f461dd6c139dd6b46c7596cbd57cd79
225,1,"""","""","""","""","""",sampler,325,194408,0.0-6.0-319.0,"""","""","""","""","""","""","""","""","""","""","""","""","2021-08-17 18:03:58",37.47.61.64,"Mozilla/5.0 (Windows NT 10.0; Win64; x64; rv:91.0) Gecko/20100101 Firefox/91.0",,Firefox,91.0,Windows,10.0,5f461dd6c139dd6b46c7596cbd57cd79
225,1,"""","""","""","""","""",sampler,326,194408,0.0-6.0-320.0,"""","""","""","""","""","""","""","""","""","""","""","""","2021-08-17 18:03:58",37.47.61.64,"Mozilla/5.0 (Windows NT 10.0; Win64; x64; rv:91.0) Gecko/20100101 Firefox/91.0",,Firefox,91.0,Windows,10.0,5f461dd6c139dd6b46c7596cbd57cd79
225,1,"""","""","""","""","""",sampler,327,194409,0.0-6.0-321.0,"""","""","""","""","""","""","""","""","""","""","""","""","2021-08-17 18:03:58",37.47.61.64,"Mozilla/5.0 (Windows NT 10.0; Win64; x64; rv:91.0) Gecko/20100101 Firefox/91.0",,Firefox,91.0,Windows,10.0,5f461dd6c139dd6b46c7596cbd57cd79
225,1,"""","""","""","""","""",sampler,328,194409,0.0-6.0-322.0,"""","""","""","""","""","""","""","""","""","""","""","""","2021-08-17 18:03:58",37.47.61.64,"Mozilla/5.0 (Windows NT 10.0; Win64; x64; rv:91.0) Gecko/20100101 Firefox/91.0",,Firefox,91.0,Windows,10.0,5f461dd6c139dd6b46c7596cbd57cd79
225,1,"""","""","""","""","""",sampler,329,194409,0.0-6.0-323.0,"""","""","""","""","""","""","""","""","""","""","""","""","2021-08-17 18:03:58",37.47.61.64,"Mozilla/5.0 (Windows NT 10.0; Win64; x64; rv:91.0) Gecko/20100101 Firefox/91.0",,Firefox,91.0,Windows,10.0,5f461dd6c139dd6b46c7596cbd57cd79
