run_id,condition,success,timeout,failed_images,failed_audio,failed_video,trial_type,trial_index,time_elapsed,internal_node_id,rt,stimulus,key_press,responses,view_history,correct,image_click,points,sd,points2,total_earn,button_pressed,recorded_at,ip,user_agent,device,browser,browser_version,platform,platform_version,source_code_version
228,1,true,false,"""","""","""",preload,0,422,0.0-0.0,"""","""","""","""","""","""","""","""","""","""","""","""","2021-08-17 18:04:13",96.51.153.237,"Mozilla/5.0 (Macintosh; Intel Mac OS X 10_14_4) AppleWebKit/537.36 (KHTML, like Gecko) Chrome/90.0.4430.212 Safari/537.36",Macintosh,Chrome,90.0.4430.212,"OS X",10_14_4,5f461dd6c139dd6b46c7596cbd57cd79
228,1,"""","""","""","""","""",html-keyboard-response,1,2148,0.0-1.0,1718,"<font size=15>Welcome to our experiment!</font><br><br><br><i> Press <b>space bar</b> to begin.</i>",32,"""","""","""","""","""","""","""","""","""","2021-08-17 18:04:13",96.51.153.237,"Mozilla/5.0 (Macintosh; Intel Mac OS X 10_14_4) AppleWebKit/537.36 (KHTML, like Gecko) Chrome/90.0.4430.212 Safari/537.36",Macintosh,Chrome,90.0.4430.212,"OS X",10_14_4,5f461dd6c139dd6b46c7596cbd57cd79
228,1,"""","""","""","""","""",survey-multi-choice,2,15086,0.0-2.0,12924,"""","""","{""Q0"":""Yes"",""Q1"":""Yes"",""Q2"":""Yes"",""Q3"":""Yes""}","""","""","""","""","""","""","""","""","2021-08-17 18:04:13",96.51.153.237,"Mozilla/5.0 (Macintosh; Intel Mac OS X 10_14_4) AppleWebKit/537.36 (KHTML, like Gecko) Chrome/90.0.4430.212 Safari/537.36",Macintosh,Chrome,90.0.4430.212,"OS X",10_14_4,5f461dd6c139dd6b46c7596cbd57cd79
228,1,"""","""","""","""","""",survey-html-form,3,25266,0.0-3.0,10172.365000005811,"""","""","{""gender"":""female"",""age"":""20"",""hand"":""right"",""mail"":""61072832734b7e60ed3226d8""}","""","""","""","""","""","""","""","""","2021-08-17 18:04:13",96.51.153.237,"Mozilla/5.0 (Macintosh; Intel Mac OS X 10_14_4) AppleWebKit/537.36 (KHTML, like Gecko) Chrome/90.0.4430.212 Safari/537.36",Macintosh,Chrome,90.0.4430.212,"OS X",10_14_4,5f461dd6c139dd6b46c7596cbd57cd79
228,1,true,"""","""","""","""",fullscreen,4,30337,0.0-4.0,"""","""","""","""","""","""","""","""","""","""","""","""","2021-08-17 18:04:13",96.51.153.237,"Mozilla/5.0 (Macintosh; Intel Mac OS X 10_14_4) AppleWebKit/537.36 (KHTML, like Gecko) Chrome/90.0.4430.212 Safari/537.36",Macintosh,Chrome,90.0.4430.212,"OS X",10_14_4,5f461dd6c139dd6b46c7596cbd57cd79
228,1,"""","""","""","""","""",multikey-instructions,5,189495,0.0-5.0,159153,"""","""","""","[{""page_index"":0,""viewing_time"":27410},{""page_index"":1,""viewing_time"":14654},{""page_index"":2,""viewing_time"":29942},{""page_index"":3,""viewing_time"":11484},{""page_index"":4,""viewing_time"":10239},{""page_index"":5,""viewing_time"":8222},{""page_index"":6,""viewing_time"":6423},{""page_index"":7,""viewing_time"":3799},{""page_index"":8,""viewing_time"":15849},{""page_index"":9,""viewing_time"":11872},{""page_index"":10,""viewing_time"":8887},{""page_index"":11,""viewing_time"":10371}]","""","""","""","""","""","""","""","2021-08-17 18:04:13",96.51.153.237,"Mozilla/5.0 (Macintosh; Intel Mac OS X 10_14_4) AppleWebKit/537.36 (KHTML, like Gecko) Chrome/90.0.4430.212 Safari/537.36",Macintosh,Chrome,90.0.4430.212,"OS X",10_14_4,5f461dd6c139dd6b46c7596cbd57cd79
228,1,"""","""","""","""","""",sampler,6,204123,0.0-6.0-0.0,14215,img/Cyan.png,"""","""","""",false,-1,20.684927887287245,10,"""","""","""","2021-08-17 18:04:13",96.51.153.237,"Mozilla/5.0 (Macintosh; Intel Mac OS X 10_14_4) AppleWebKit/537.36 (KHTML, like Gecko) Chrome/90.0.4430.212 Safari/537.36",Macintosh,Chrome,90.0.4430.212,"OS X",10_14_4,5f461dd6c139dd6b46c7596cbd57cd79
228,1,"""","""","""","""","""",sampler,7,209669,0.0-6.0-1.0,5135,img/Cyan.png,"""","""","""",false,-1,22.007249494420464,10,"""","""","""","2021-08-17 18:04:13",96.51.153.237,"Mozilla/5.0 (Macintosh; Intel Mac OS X 10_14_4) AppleWebKit/537.36 (KHTML, like Gecko) Chrome/90.0.4430.212 Safari/537.36",Macintosh,Chrome,90.0.4430.212,"OS X",10_14_4,5f461dd6c139dd6b46c7596cbd57cd79
228,1,"""","""","""","""","""",sampler,8,213742,0.0-6.0-2.0,3668,img/Cyan.png,"""","""","""",false,-1,11.71267753024324,10,"""","""","""","2021-08-17 18:04:13",96.51.153.237,"Mozilla/5.0 (Macintosh; Intel Mac OS X 10_14_4) AppleWebKit/537.36 (KHTML, like Gecko) Chrome/90.0.4430.212 Safari/537.36",Macintosh,Chrome,90.0.4430.212,"OS X",10_14_4,5f461dd6c139dd6b46c7596cbd57cd79
228,1,"""","""","""","""","""",sampler,9,214807,0.0-6.0-3.0,654,img/Cyan.png,"""","""","""",false,-1,7.313172766993704,10,"""","""","""","2021-08-17 18:04:13",96.51.153.237,"Mozilla/5.0 (Macintosh; Intel Mac OS X 10_14_4) AppleWebKit/537.36 (KHTML, like Gecko) Chrome/90.0.4430.212 Safari/537.36",Macintosh,Chrome,90.0.4430.212,"OS X",10_14_4,5f461dd6c139dd6b46c7596cbd57cd79
228,1,"""","""","""","""","""",sampler,10,215517,0.0-6.0-4.0,301,img/Cyan.png,"""","""","""",false,-1,16.67319241189332,10,"""","""","""","2021-08-17 18:04:13",96.51.153.237,"Mozilla/5.0 (Macintosh; Intel Mac OS X 10_14_4) AppleWebKit/537.36 (KHTML, like Gecko) Chrome/90.0.4430.212 Safari/537.36",Macintosh,Chrome,90.0.4430.212,"OS X",10_14_4,5f461dd6c139dd6b46c7596cbd57cd79
228,1,"""","""","""","""","""",sampler,11,216089,0.0-6.0-5.0,163,img/Cyan.png,"""","""","""",false,-1,17.05134786344641,10,"""","""","""","2021-08-17 18:04:13",96.51.153.237,"Mozilla/5.0 (Macintosh; Intel Mac OS X 10_14_4) AppleWebKit/537.36 (KHTML, like Gecko) Chrome/90.0.4430.212 Safari/537.36",Macintosh,Chrome,90.0.4430.212,"OS X",10_14_4,5f461dd6c139dd6b46c7596cbd57cd79
228,1,"""","""","""","""","""",sampler,12,216570,0.0-6.0-6.0,76,img/Cyan.png,"""","""","""",false,-1,12.381509628780766,10,"""","""","""","2021-08-17 18:04:13",96.51.153.237,"Mozilla/5.0 (Macintosh; Intel Mac OS X 10_14_4) AppleWebKit/537.36 (KHTML, like Gecko) Chrome/90.0.4430.212 Safari/537.36",Macintosh,Chrome,90.0.4430.212,"OS X",10_14_4,5f461dd6c139dd6b46c7596cbd57cd79
228,1,"""","""","""","""","""",sampler,13,217059,0.0-6.0-7.0,79,img/Cyan.png,"""","""","""",false,-1,11.52721240261732,10,"""","""","""","2021-08-17 18:04:13",96.51.153.237,"Mozilla/5.0 (Macintosh; Intel Mac OS X 10_14_4) AppleWebKit/537.36 (KHTML, like Gecko) Chrome/90.0.4430.212 Safari/537.36",Macintosh,Chrome,90.0.4430.212,"OS X",10_14_4,5f461dd6c139dd6b46c7596cbd57cd79
228,1,"""","""","""","""","""",sampler,14,217487,0.0-6.0-8.0,20,img/Cyan.png,"""","""","""",false,-1,-7.89882276588901,10,"""","""","""","2021-08-17 18:04:13",96.51.153.237,"Mozilla/5.0 (Macintosh; Intel Mac OS X 10_14_4) AppleWebKit/537.36 (KHTML, like Gecko) Chrome/90.0.4430.212 Safari/537.36",Macintosh,Chrome,90.0.4430.212,"OS X",10_14_4,5f461dd6c139dd6b46c7596cbd57cd79
228,1,"""","""","""","""","""",sampler,15,218133,0.0-6.0-9.0,240,img/Cyan.png,"""","""","""",false,-1,19.817025325790837,10,"""","""","""","2021-08-17 18:04:13",96.51.153.237,"Mozilla/5.0 (Macintosh; Intel Mac OS X 10_14_4) AppleWebKit/537.36 (KHTML, like Gecko) Chrome/90.0.4430.212 Safari/537.36",Macintosh,Chrome,90.0.4430.212,"OS X",10_14_4,5f461dd6c139dd6b46c7596cbd57cd79
228,1,"""","""","""","""","""",sampler,16,218635,0.0-6.0-10.0,97,img/Cyan.png,"""","""","""",false,-1,-7.198733507842,10,"""","""","""","2021-08-17 18:04:13",96.51.153.237,"Mozilla/5.0 (Macintosh; Intel Mac OS X 10_14_4) AppleWebKit/537.36 (KHTML, like Gecko) Chrome/90.0.4430.212 Safari/537.36",Macintosh,Chrome,90.0.4430.212,"OS X",10_14_4,5f461dd6c139dd6b46c7596cbd57cd79
228,1,"""","""","""","""","""",sampler,17,219171,0.0-6.0-11.0,131,img/Cyan.png,"""","""","""",false,-1,3.1595723447136583,10,"""","""","""","2021-08-17 18:04:13",96.51.153.237,"Mozilla/5.0 (Macintosh; Intel Mac OS X 10_14_4) AppleWebKit/537.36 (KHTML, like Gecko) Chrome/90.0.4430.212 Safari/537.36",Macintosh,Chrome,90.0.4430.212,"OS X",10_14_4,5f461dd6c139dd6b46c7596cbd57cd79
228,1,"""","""","""","""","""",sampler,18,219646,0.0-6.0-12.0,65,img/Cyan.png,"""","""","""",false,-1,3.4430605224051503,10,"""","""","""","2021-08-17 18:04:13",96.51.153.237,"Mozilla/5.0 (Macintosh; Intel Mac OS X 10_14_4) AppleWebKit/537.36 (KHTML, like Gecko) Chrome/90.0.4430.212 Safari/537.36",Macintosh,Chrome,90.0.4430.212,"OS X",10_14_4,5f461dd6c139dd6b46c7596cbd57cd79
228,1,"""","""","""","""","""",sampler,19,220121,0.0-6.0-13.0,68,img/Cyan.png,"""","""","""",false,-1,-7.842622365982473,10,"""","""","""","2021-08-17 18:04:13",96.51.153.237,"Mozilla/5.0 (Macintosh; Intel Mac OS X 10_14_4) AppleWebKit/537.36 (KHTML, like Gecko) Chrome/90.0.4430.212 Safari/537.36",Macintosh,Chrome,90.0.4430.212,"OS X",10_14_4,5f461dd6c139dd6b46c7596cbd57cd79
228,1,"""","""","""","""","""",sampler,20,220738,0.0-6.0-14.0,209,img/Cyan.png,"""","""","""",false,-1,6.282650661227108,10,"""","""","""","2021-08-17 18:04:13",96.51.153.237,"Mozilla/5.0 (Macintosh; Intel Mac OS X 10_14_4) AppleWebKit/537.36 (KHTML, like Gecko) Chrome/90.0.4430.212 Safari/537.36",Macintosh,Chrome,90.0.4430.212,"OS X",10_14_4,5f461dd6c139dd6b46c7596cbd57cd79
228,1,"""","""","""","""","""",sampler,21,221256,0.0-6.0-15.0,109,img/Cyan.png,"""","""","""",false,-1,-6.186953559330162,10,"""","""","""","2021-08-17 18:04:13",96.51.153.237,"Mozilla/5.0 (Macintosh; Intel Mac OS X 10_14_4) AppleWebKit/537.36 (KHTML, like Gecko) Chrome/90.0.4430.212 Safari/537.36",Macintosh,Chrome,90.0.4430.212,"OS X",10_14_4,5f461dd6c139dd6b46c7596cbd57cd79
228,1,"""","""","""","""","""",sampler,22,226959,0.0-6.0-16.0,5300,img/Cyan.png,"""","""","""",false,-1,17.521291999730014,10,"""","""","""","2021-08-17 18:04:13",96.51.153.237,"Mozilla/5.0 (Macintosh; Intel Mac OS X 10_14_4) AppleWebKit/537.36 (KHTML, like Gecko) Chrome/90.0.4430.212 Safari/537.36",Macintosh,Chrome,90.0.4430.212,"OS X",10_14_4,5f461dd6c139dd6b46c7596cbd57cd79
228,1,"""","""","""","""","""",sampler,23,226963,0.0-6.0-17.0,"""","""","""","""","""","""","""","""","""","""","""","""","2021-08-17 18:04:13",96.51.153.237,"Mozilla/5.0 (Macintosh; Intel Mac OS X 10_14_4) AppleWebKit/537.36 (KHTML, like Gecko) Chrome/90.0.4430.212 Safari/537.36",Macintosh,Chrome,90.0.4430.212,"OS X",10_14_4,5f461dd6c139dd6b46c7596cbd57cd79
228,1,"""","""","""","""","""",sampler,24,226964,0.0-6.0-18.0,"""","""","""","""","""","""","""","""","""","""","""","""","2021-08-17 18:04:13",96.51.153.237,"Mozilla/5.0 (Macintosh; Intel Mac OS X 10_14_4) AppleWebKit/537.36 (KHTML, like Gecko) Chrome/90.0.4430.212 Safari/537.36",Macintosh,Chrome,90.0.4430.212,"OS X",10_14_4,5f461dd6c139dd6b46c7596cbd57cd79
228,1,"""","""","""","""","""",sampler,25,226964,0.0-6.0-19.0,"""","""","""","""","""","""","""","""","""","""","""","""","2021-08-17 18:04:13",96.51.153.237,"Mozilla/5.0 (Macintosh; Intel Mac OS X 10_14_4) AppleWebKit/537.36 (KHTML, like Gecko) Chrome/90.0.4430.212 Safari/537.36",Macintosh,Chrome,90.0.4430.212,"OS X",10_14_4,5f461dd6c139dd6b46c7596cbd57cd79
228,1,"""","""","""","""","""",sampler,26,226964,0.0-6.0-20.0,"""","""","""","""","""","""","""","""","""","""","""","""","2021-08-17 18:04:13",96.51.153.237,"Mozilla/5.0 (Macintosh; Intel Mac OS X 10_14_4) AppleWebKit/537.36 (KHTML, like Gecko) Chrome/90.0.4430.212 Safari/537.36",Macintosh,Chrome,90.0.4430.212,"OS X",10_14_4,5f461dd6c139dd6b46c7596cbd57cd79
228,1,"""","""","""","""","""",sampler,27,226965,0.0-6.0-21.0,"""","""","""","""","""","""","""","""","""","""","""","""","2021-08-17 18:04:13",96.51.153.237,"Mozilla/5.0 (Macintosh; Intel Mac OS X 10_14_4) AppleWebKit/537.36 (KHTML, like Gecko) Chrome/90.0.4430.212 Safari/537.36",Macintosh,Chrome,90.0.4430.212,"OS X",10_14_4,5f461dd6c139dd6b46c7596cbd57cd79
228,1,"""","""","""","""","""",sampler,28,226965,0.0-6.0-22.0,"""","""","""","""","""","""","""","""","""","""","""","""","2021-08-17 18:04:13",96.51.153.237,"Mozilla/5.0 (Macintosh; Intel Mac OS X 10_14_4) AppleWebKit/537.36 (KHTML, like Gecko) Chrome/90.0.4430.212 Safari/537.36",Macintosh,Chrome,90.0.4430.212,"OS X",10_14_4,5f461dd6c139dd6b46c7596cbd57cd79
228,1,"""","""","""","""","""",sampler,29,226965,0.0-6.0-23.0,"""","""","""","""","""","""","""","""","""","""","""","""","2021-08-17 18:04:13",96.51.153.237,"Mozilla/5.0 (Macintosh; Intel Mac OS X 10_14_4) AppleWebKit/537.36 (KHTML, like Gecko) Chrome/90.0.4430.212 Safari/537.36",Macintosh,Chrome,90.0.4430.212,"OS X",10_14_4,5f461dd6c139dd6b46c7596cbd57cd79
228,1,"""","""","""","""","""",sampler,30,226965,0.0-6.0-24.0,"""","""","""","""","""","""","""","""","""","""","""","""","2021-08-17 18:04:13",96.51.153.237,"Mozilla/5.0 (Macintosh; Intel Mac OS X 10_14_4) AppleWebKit/537.36 (KHTML, like Gecko) Chrome/90.0.4430.212 Safari/537.36",Macintosh,Chrome,90.0.4430.212,"OS X",10_14_4,5f461dd6c139dd6b46c7596cbd57cd79
228,1,"""","""","""","""","""",sampler,31,226965,0.0-6.0-25.0,"""","""","""","""","""","""","""","""","""","""","""","""","2021-08-17 18:04:13",96.51.153.237,"Mozilla/5.0 (Macintosh; Intel Mac OS X 10_14_4) AppleWebKit/537.36 (KHTML, like Gecko) Chrome/90.0.4430.212 Safari/537.36",Macintosh,Chrome,90.0.4430.212,"OS X",10_14_4,5f461dd6c139dd6b46c7596cbd57cd79
228,1,"""","""","""","""","""",sampler,32,226966,0.0-6.0-26.0,"""","""","""","""","""","""","""","""","""","""","""","""","2021-08-17 18:04:13",96.51.153.237,"Mozilla/5.0 (Macintosh; Intel Mac OS X 10_14_4) AppleWebKit/537.36 (KHTML, like Gecko) Chrome/90.0.4430.212 Safari/537.36",Macintosh,Chrome,90.0.4430.212,"OS X",10_14_4,5f461dd6c139dd6b46c7596cbd57cd79
228,1,"""","""","""","""","""",sampler,33,226966,0.0-6.0-27.0,"""","""","""","""","""","""","""","""","""","""","""","""","2021-08-17 18:04:13",96.51.153.237,"Mozilla/5.0 (Macintosh; Intel Mac OS X 10_14_4) AppleWebKit/537.36 (KHTML, like Gecko) Chrome/90.0.4430.212 Safari/537.36",Macintosh,Chrome,90.0.4430.212,"OS X",10_14_4,5f461dd6c139dd6b46c7596cbd57cd79
228,1,"""","""","""","""","""",sampler,34,226966,0.0-6.0-28.0,"""","""","""","""","""","""","""","""","""","""","""","""","2021-08-17 18:04:13",96.51.153.237,"Mozilla/5.0 (Macintosh; Intel Mac OS X 10_14_4) AppleWebKit/537.36 (KHTML, like Gecko) Chrome/90.0.4430.212 Safari/537.36",Macintosh,Chrome,90.0.4430.212,"OS X",10_14_4,5f461dd6c139dd6b46c7596cbd57cd79
228,1,"""","""","""","""","""",sampler,35,226966,0.0-6.0-29.0,"""","""","""","""","""","""","""","""","""","""","""","""","2021-08-17 18:04:13",96.51.153.237,"Mozilla/5.0 (Macintosh; Intel Mac OS X 10_14_4) AppleWebKit/537.36 (KHTML, like Gecko) Chrome/90.0.4430.212 Safari/537.36",Macintosh,Chrome,90.0.4430.212,"OS X",10_14_4,5f461dd6c139dd6b46c7596cbd57cd79
228,1,"""","""","""","""","""",sampler,36,226967,0.0-6.0-30.0,"""","""","""","""","""","""","""","""","""","""","""","""","2021-08-17 18:04:13",96.51.153.237,"Mozilla/5.0 (Macintosh; Intel Mac OS X 10_14_4) AppleWebKit/537.36 (KHTML, like Gecko) Chrome/90.0.4430.212 Safari/537.36",Macintosh,Chrome,90.0.4430.212,"OS X",10_14_4,5f461dd6c139dd6b46c7596cbd57cd79
228,1,"""","""","""","""","""",sampler,37,226967,0.0-6.0-31.0,"""","""","""","""","""","""","""","""","""","""","""","""","2021-08-17 18:04:13",96.51.153.237,"Mozilla/5.0 (Macintosh; Intel Mac OS X 10_14_4) AppleWebKit/537.36 (KHTML, like Gecko) Chrome/90.0.4430.212 Safari/537.36",Macintosh,Chrome,90.0.4430.212,"OS X",10_14_4,5f461dd6c139dd6b46c7596cbd57cd79
228,1,"""","""","""","""","""",sampler,38,226967,0.0-6.0-32.0,"""","""","""","""","""","""","""","""","""","""","""","""","2021-08-17 18:04:13",96.51.153.237,"Mozilla/5.0 (Macintosh; Intel Mac OS X 10_14_4) AppleWebKit/537.36 (KHTML, like Gecko) Chrome/90.0.4430.212 Safari/537.36",Macintosh,Chrome,90.0.4430.212,"OS X",10_14_4,5f461dd6c139dd6b46c7596cbd57cd79
228,1,"""","""","""","""","""",sampler,39,226968,0.0-6.0-33.0,"""","""","""","""","""","""","""","""","""","""","""","""","2021-08-17 18:04:13",96.51.153.237,"Mozilla/5.0 (Macintosh; Intel Mac OS X 10_14_4) AppleWebKit/537.36 (KHTML, like Gecko) Chrome/90.0.4430.212 Safari/537.36",Macintosh,Chrome,90.0.4430.212,"OS X",10_14_4,5f461dd6c139dd6b46c7596cbd57cd79
228,1,"""","""","""","""","""",sampler,40,226968,0.0-6.0-34.0,"""","""","""","""","""","""","""","""","""","""","""","""","2021-08-17 18:04:13",96.51.153.237,"Mozilla/5.0 (Macintosh; Intel Mac OS X 10_14_4) AppleWebKit/537.36 (KHTML, like Gecko) Chrome/90.0.4430.212 Safari/537.36",Macintosh,Chrome,90.0.4430.212,"OS X",10_14_4,5f461dd6c139dd6b46c7596cbd57cd79
228,1,"""","""","""","""","""",sampler,41,226968,0.0-6.0-35.0,"""","""","""","""","""","""","""","""","""","""","""","""","2021-08-17 18:04:13",96.51.153.237,"Mozilla/5.0 (Macintosh; Intel Mac OS X 10_14_4) AppleWebKit/537.36 (KHTML, like Gecko) Chrome/90.0.4430.212 Safari/537.36",Macintosh,Chrome,90.0.4430.212,"OS X",10_14_4,5f461dd6c139dd6b46c7596cbd57cd79
228,1,"""","""","""","""","""",sampler,42,226968,0.0-6.0-36.0,"""","""","""","""","""","""","""","""","""","""","""","""","2021-08-17 18:04:13",96.51.153.237,"Mozilla/5.0 (Macintosh; Intel Mac OS X 10_14_4) AppleWebKit/537.36 (KHTML, like Gecko) Chrome/90.0.4430.212 Safari/537.36",Macintosh,Chrome,90.0.4430.212,"OS X",10_14_4,5f461dd6c139dd6b46c7596cbd57cd79
228,1,"""","""","""","""","""",sampler,43,226968,0.0-6.0-37.0,"""","""","""","""","""","""","""","""","""","""","""","""","2021-08-17 18:04:13",96.51.153.237,"Mozilla/5.0 (Macintosh; Intel Mac OS X 10_14_4) AppleWebKit/537.36 (KHTML, like Gecko) Chrome/90.0.4430.212 Safari/537.36",Macintosh,Chrome,90.0.4430.212,"OS X",10_14_4,5f461dd6c139dd6b46c7596cbd57cd79
228,1,"""","""","""","""","""",sampler,44,226969,0.0-6.0-38.0,"""","""","""","""","""","""","""","""","""","""","""","""","2021-08-17 18:04:13",96.51.153.237,"Mozilla/5.0 (Macintosh; Intel Mac OS X 10_14_4) AppleWebKit/537.36 (KHTML, like Gecko) Chrome/90.0.4430.212 Safari/537.36",Macintosh,Chrome,90.0.4430.212,"OS X",10_14_4,5f461dd6c139dd6b46c7596cbd57cd79
228,1,"""","""","""","""","""",sampler,45,226969,0.0-6.0-39.0,"""","""","""","""","""","""","""","""","""","""","""","""","2021-08-17 18:04:13",96.51.153.237,"Mozilla/5.0 (Macintosh; Intel Mac OS X 10_14_4) AppleWebKit/537.36 (KHTML, like Gecko) Chrome/90.0.4430.212 Safari/537.36",Macintosh,Chrome,90.0.4430.212,"OS X",10_14_4,5f461dd6c139dd6b46c7596cbd57cd79
228,1,"""","""","""","""","""",sampler,46,226969,0.0-6.0-40.0,"""","""","""","""","""","""","""","""","""","""","""","""","2021-08-17 18:04:13",96.51.153.237,"Mozilla/5.0 (Macintosh; Intel Mac OS X 10_14_4) AppleWebKit/537.36 (KHTML, like Gecko) Chrome/90.0.4430.212 Safari/537.36",Macintosh,Chrome,90.0.4430.212,"OS X",10_14_4,5f461dd6c139dd6b46c7596cbd57cd79
228,1,"""","""","""","""","""",sampler,47,226969,0.0-6.0-41.0,"""","""","""","""","""","""","""","""","""","""","""","""","2021-08-17 18:04:13",96.51.153.237,"Mozilla/5.0 (Macintosh; Intel Mac OS X 10_14_4) AppleWebKit/537.36 (KHTML, like Gecko) Chrome/90.0.4430.212 Safari/537.36",Macintosh,Chrome,90.0.4430.212,"OS X",10_14_4,5f461dd6c139dd6b46c7596cbd57cd79
228,1,"""","""","""","""","""",sampler,48,226970,0.0-6.0-42.0,"""","""","""","""","""","""","""","""","""","""","""","""","2021-08-17 18:04:13",96.51.153.237,"Mozilla/5.0 (Macintosh; Intel Mac OS X 10_14_4) AppleWebKit/537.36 (KHTML, like Gecko) Chrome/90.0.4430.212 Safari/537.36",Macintosh,Chrome,90.0.4430.212,"OS X",10_14_4,5f461dd6c139dd6b46c7596cbd57cd79
228,1,"""","""","""","""","""",sampler,49,226970,0.0-6.0-43.0,"""","""","""","""","""","""","""","""","""","""","""","""","2021-08-17 18:04:13",96.51.153.237,"Mozilla/5.0 (Macintosh; Intel Mac OS X 10_14_4) AppleWebKit/537.36 (KHTML, like Gecko) Chrome/90.0.4430.212 Safari/537.36",Macintosh,Chrome,90.0.4430.212,"OS X",10_14_4,5f461dd6c139dd6b46c7596cbd57cd79
228,1,"""","""","""","""","""",sampler,50,226970,0.0-6.0-44.0,"""","""","""","""","""","""","""","""","""","""","""","""","2021-08-17 18:04:13",96.51.153.237,"Mozilla/5.0 (Macintosh; Intel Mac OS X 10_14_4) AppleWebKit/537.36 (KHTML, like Gecko) Chrome/90.0.4430.212 Safari/537.36",Macintosh,Chrome,90.0.4430.212,"OS X",10_14_4,5f461dd6c139dd6b46c7596cbd57cd79
228,1,"""","""","""","""","""",sampler,51,226971,0.0-6.0-45.0,"""","""","""","""","""","""","""","""","""","""","""","""","2021-08-17 18:04:13",96.51.153.237,"Mozilla/5.0 (Macintosh; Intel Mac OS X 10_14_4) AppleWebKit/537.36 (KHTML, like Gecko) Chrome/90.0.4430.212 Safari/537.36",Macintosh,Chrome,90.0.4430.212,"OS X",10_14_4,5f461dd6c139dd6b46c7596cbd57cd79
228,1,"""","""","""","""","""",sampler,52,226971,0.0-6.0-46.0,"""","""","""","""","""","""","""","""","""","""","""","""","2021-08-17 18:04:13",96.51.153.237,"Mozilla/5.0 (Macintosh; Intel Mac OS X 10_14_4) AppleWebKit/537.36 (KHTML, like Gecko) Chrome/90.0.4430.212 Safari/537.36",Macintosh,Chrome,90.0.4430.212,"OS X",10_14_4,5f461dd6c139dd6b46c7596cbd57cd79
228,1,"""","""","""","""","""",sampler,53,226971,0.0-6.0-47.0,"""","""","""","""","""","""","""","""","""","""","""","""","2021-08-17 18:04:13",96.51.153.237,"Mozilla/5.0 (Macintosh; Intel Mac OS X 10_14_4) AppleWebKit/537.36 (KHTML, like Gecko) Chrome/90.0.4430.212 Safari/537.36",Macintosh,Chrome,90.0.4430.212,"OS X",10_14_4,5f461dd6c139dd6b46c7596cbd57cd79
228,1,"""","""","""","""","""",sampler,54,226971,0.0-6.0-48.0,"""","""","""","""","""","""","""","""","""","""","""","""","2021-08-17 18:04:13",96.51.153.237,"Mozilla/5.0 (Macintosh; Intel Mac OS X 10_14_4) AppleWebKit/537.36 (KHTML, like Gecko) Chrome/90.0.4430.212 Safari/537.36",Macintosh,Chrome,90.0.4430.212,"OS X",10_14_4,5f461dd6c139dd6b46c7596cbd57cd79
228,1,"""","""","""","""","""",sampler,55,226971,0.0-6.0-49.0,"""","""","""","""","""","""","""","""","""","""","""","""","2021-08-17 18:04:13",96.51.153.237,"Mozilla/5.0 (Macintosh; Intel Mac OS X 10_14_4) AppleWebKit/537.36 (KHTML, like Gecko) Chrome/90.0.4430.212 Safari/537.36",Macintosh,Chrome,90.0.4430.212,"OS X",10_14_4,5f461dd6c139dd6b46c7596cbd57cd79
228,1,"""","""","""","""","""",sampler,56,226972,0.0-6.0-50.0,"""","""","""","""","""","""","""","""","""","""","""","""","2021-08-17 18:04:13",96.51.153.237,"Mozilla/5.0 (Macintosh; Intel Mac OS X 10_14_4) AppleWebKit/537.36 (KHTML, like Gecko) Chrome/90.0.4430.212 Safari/537.36",Macintosh,Chrome,90.0.4430.212,"OS X",10_14_4,5f461dd6c139dd6b46c7596cbd57cd79
228,1,"""","""","""","""","""",sampler,57,226972,0.0-6.0-51.0,"""","""","""","""","""","""","""","""","""","""","""","""","2021-08-17 18:04:13",96.51.153.237,"Mozilla/5.0 (Macintosh; Intel Mac OS X 10_14_4) AppleWebKit/537.36 (KHTML, like Gecko) Chrome/90.0.4430.212 Safari/537.36",Macintosh,Chrome,90.0.4430.212,"OS X",10_14_4,5f461dd6c139dd6b46c7596cbd57cd79
228,1,"""","""","""","""","""",sampler,58,226972,0.0-6.0-52.0,"""","""","""","""","""","""","""","""","""","""","""","""","2021-08-17 18:04:13",96.51.153.237,"Mozilla/5.0 (Macintosh; Intel Mac OS X 10_14_4) AppleWebKit/537.36 (KHTML, like Gecko) Chrome/90.0.4430.212 Safari/537.36",Macintosh,Chrome,90.0.4430.212,"OS X",10_14_4,5f461dd6c139dd6b46c7596cbd57cd79
228,1,"""","""","""","""","""",sampler,59,226972,0.0-6.0-53.0,"""","""","""","""","""","""","""","""","""","""","""","""","2021-08-17 18:04:13",96.51.153.237,"Mozilla/5.0 (Macintosh; Intel Mac OS X 10_14_4) AppleWebKit/537.36 (KHTML, like Gecko) Chrome/90.0.4430.212 Safari/537.36",Macintosh,Chrome,90.0.4430.212,"OS X",10_14_4,5f461dd6c139dd6b46c7596cbd57cd79
228,1,"""","""","""","""","""",sampler,60,226972,0.0-6.0-54.0,"""","""","""","""","""","""","""","""","""","""","""","""","2021-08-17 18:04:13",96.51.153.237,"Mozilla/5.0 (Macintosh; Intel Mac OS X 10_14_4) AppleWebKit/537.36 (KHTML, like Gecko) Chrome/90.0.4430.212 Safari/537.36",Macintosh,Chrome,90.0.4430.212,"OS X",10_14_4,5f461dd6c139dd6b46c7596cbd57cd79
228,1,"""","""","""","""","""",sampler,61,226973,0.0-6.0-55.0,"""","""","""","""","""","""","""","""","""","""","""","""","2021-08-17 18:04:13",96.51.153.237,"Mozilla/5.0 (Macintosh; Intel Mac OS X 10_14_4) AppleWebKit/537.36 (KHTML, like Gecko) Chrome/90.0.4430.212 Safari/537.36",Macintosh,Chrome,90.0.4430.212,"OS X",10_14_4,5f461dd6c139dd6b46c7596cbd57cd79
228,1,"""","""","""","""","""",sampler,62,226973,0.0-6.0-56.0,"""","""","""","""","""","""","""","""","""","""","""","""","2021-08-17 18:04:13",96.51.153.237,"Mozilla/5.0 (Macintosh; Intel Mac OS X 10_14_4) AppleWebKit/537.36 (KHTML, like Gecko) Chrome/90.0.4430.212 Safari/537.36",Macintosh,Chrome,90.0.4430.212,"OS X",10_14_4,5f461dd6c139dd6b46c7596cbd57cd79
228,1,"""","""","""","""","""",sampler,63,226973,0.0-6.0-57.0,"""","""","""","""","""","""","""","""","""","""","""","""","2021-08-17 18:04:13",96.51.153.237,"Mozilla/5.0 (Macintosh; Intel Mac OS X 10_14_4) AppleWebKit/537.36 (KHTML, like Gecko) Chrome/90.0.4430.212 Safari/537.36",Macintosh,Chrome,90.0.4430.212,"OS X",10_14_4,5f461dd6c139dd6b46c7596cbd57cd79
228,1,"""","""","""","""","""",sampler,64,226973,0.0-6.0-58.0,"""","""","""","""","""","""","""","""","""","""","""","""","2021-08-17 18:04:13",96.51.153.237,"Mozilla/5.0 (Macintosh; Intel Mac OS X 10_14_4) AppleWebKit/537.36 (KHTML, like Gecko) Chrome/90.0.4430.212 Safari/537.36",Macintosh,Chrome,90.0.4430.212,"OS X",10_14_4,5f461dd6c139dd6b46c7596cbd57cd79
228,1,"""","""","""","""","""",sampler,65,226973,0.0-6.0-59.0,"""","""","""","""","""","""","""","""","""","""","""","""","2021-08-17 18:04:13",96.51.153.237,"Mozilla/5.0 (Macintosh; Intel Mac OS X 10_14_4) AppleWebKit/537.36 (KHTML, like Gecko) Chrome/90.0.4430.212 Safari/537.36",Macintosh,Chrome,90.0.4430.212,"OS X",10_14_4,5f461dd6c139dd6b46c7596cbd57cd79
228,1,"""","""","""","""","""",sampler,66,226973,0.0-6.0-60.0,"""","""","""","""","""","""","""","""","""","""","""","""","2021-08-17 18:04:13",96.51.153.237,"Mozilla/5.0 (Macintosh; Intel Mac OS X 10_14_4) AppleWebKit/537.36 (KHTML, like Gecko) Chrome/90.0.4430.212 Safari/537.36",Macintosh,Chrome,90.0.4430.212,"OS X",10_14_4,5f461dd6c139dd6b46c7596cbd57cd79
228,1,"""","""","""","""","""",sampler,67,226974,0.0-6.0-61.0,"""","""","""","""","""","""","""","""","""","""","""","""","2021-08-17 18:04:13",96.51.153.237,"Mozilla/5.0 (Macintosh; Intel Mac OS X 10_14_4) AppleWebKit/537.36 (KHTML, like Gecko) Chrome/90.0.4430.212 Safari/537.36",Macintosh,Chrome,90.0.4430.212,"OS X",10_14_4,5f461dd6c139dd6b46c7596cbd57cd79
228,1,"""","""","""","""","""",sampler,68,226974,0.0-6.0-62.0,"""","""","""","""","""","""","""","""","""","""","""","""","2021-08-17 18:04:13",96.51.153.237,"Mozilla/5.0 (Macintosh; Intel Mac OS X 10_14_4) AppleWebKit/537.36 (KHTML, like Gecko) Chrome/90.0.4430.212 Safari/537.36",Macintosh,Chrome,90.0.4430.212,"OS X",10_14_4,5f461dd6c139dd6b46c7596cbd57cd79
228,1,"""","""","""","""","""",sampler,69,226974,0.0-6.0-63.0,"""","""","""","""","""","""","""","""","""","""","""","""","2021-08-17 18:04:13",96.51.153.237,"Mozilla/5.0 (Macintosh; Intel Mac OS X 10_14_4) AppleWebKit/537.36 (KHTML, like Gecko) Chrome/90.0.4430.212 Safari/537.36",Macintosh,Chrome,90.0.4430.212,"OS X",10_14_4,5f461dd6c139dd6b46c7596cbd57cd79
228,1,"""","""","""","""","""",sampler,70,226976,0.0-6.0-64.0,"""","""","""","""","""","""","""","""","""","""","""","""","2021-08-17 18:04:13",96.51.153.237,"Mozilla/5.0 (Macintosh; Intel Mac OS X 10_14_4) AppleWebKit/537.36 (KHTML, like Gecko) Chrome/90.0.4430.212 Safari/537.36",Macintosh,Chrome,90.0.4430.212,"OS X",10_14_4,5f461dd6c139dd6b46c7596cbd57cd79
228,1,"""","""","""","""","""",sampler,71,226976,0.0-6.0-65.0,"""","""","""","""","""","""","""","""","""","""","""","""","2021-08-17 18:04:13",96.51.153.237,"Mozilla/5.0 (Macintosh; Intel Mac OS X 10_14_4) AppleWebKit/537.36 (KHTML, like Gecko) Chrome/90.0.4430.212 Safari/537.36",Macintosh,Chrome,90.0.4430.212,"OS X",10_14_4,5f461dd6c139dd6b46c7596cbd57cd79
228,1,"""","""","""","""","""",sampler,72,226976,0.0-6.0-66.0,"""","""","""","""","""","""","""","""","""","""","""","""","2021-08-17 18:04:13",96.51.153.237,"Mozilla/5.0 (Macintosh; Intel Mac OS X 10_14_4) AppleWebKit/537.36 (KHTML, like Gecko) Chrome/90.0.4430.212 Safari/537.36",Macintosh,Chrome,90.0.4430.212,"OS X",10_14_4,5f461dd6c139dd6b46c7596cbd57cd79
228,1,"""","""","""","""","""",sampler,73,226976,0.0-6.0-67.0,"""","""","""","""","""","""","""","""","""","""","""","""","2021-08-17 18:04:13",96.51.153.237,"Mozilla/5.0 (Macintosh; Intel Mac OS X 10_14_4) AppleWebKit/537.36 (KHTML, like Gecko) Chrome/90.0.4430.212 Safari/537.36",Macintosh,Chrome,90.0.4430.212,"OS X",10_14_4,5f461dd6c139dd6b46c7596cbd57cd79
228,1,"""","""","""","""","""",sampler,74,226977,0.0-6.0-68.0,"""","""","""","""","""","""","""","""","""","""","""","""","2021-08-17 18:04:13",96.51.153.237,"Mozilla/5.0 (Macintosh; Intel Mac OS X 10_14_4) AppleWebKit/537.36 (KHTML, like Gecko) Chrome/90.0.4430.212 Safari/537.36",Macintosh,Chrome,90.0.4430.212,"OS X",10_14_4,5f461dd6c139dd6b46c7596cbd57cd79
228,1,"""","""","""","""","""",sampler,75,226977,0.0-6.0-69.0,"""","""","""","""","""","""","""","""","""","""","""","""","2021-08-17 18:04:13",96.51.153.237,"Mozilla/5.0 (Macintosh; Intel Mac OS X 10_14_4) AppleWebKit/537.36 (KHTML, like Gecko) Chrome/90.0.4430.212 Safari/537.36",Macintosh,Chrome,90.0.4430.212,"OS X",10_14_4,5f461dd6c139dd6b46c7596cbd57cd79
228,1,"""","""","""","""","""",sampler,76,226977,0.0-6.0-70.0,"""","""","""","""","""","""","""","""","""","""","""","""","2021-08-17 18:04:13",96.51.153.237,"Mozilla/5.0 (Macintosh; Intel Mac OS X 10_14_4) AppleWebKit/537.36 (KHTML, like Gecko) Chrome/90.0.4430.212 Safari/537.36",Macintosh,Chrome,90.0.4430.212,"OS X",10_14_4,5f461dd6c139dd6b46c7596cbd57cd79
228,1,"""","""","""","""","""",sampler,77,226977,0.0-6.0-71.0,"""","""","""","""","""","""","""","""","""","""","""","""","2021-08-17 18:04:13",96.51.153.237,"Mozilla/5.0 (Macintosh; Intel Mac OS X 10_14_4) AppleWebKit/537.36 (KHTML, like Gecko) Chrome/90.0.4430.212 Safari/537.36",Macintosh,Chrome,90.0.4430.212,"OS X",10_14_4,5f461dd6c139dd6b46c7596cbd57cd79
228,1,"""","""","""","""","""",sampler,78,226977,0.0-6.0-72.0,"""","""","""","""","""","""","""","""","""","""","""","""","2021-08-17 18:04:13",96.51.153.237,"Mozilla/5.0 (Macintosh; Intel Mac OS X 10_14_4) AppleWebKit/537.36 (KHTML, like Gecko) Chrome/90.0.4430.212 Safari/537.36",Macintosh,Chrome,90.0.4430.212,"OS X",10_14_4,5f461dd6c139dd6b46c7596cbd57cd79
228,1,"""","""","""","""","""",sampler,79,226977,0.0-6.0-73.0,"""","""","""","""","""","""","""","""","""","""","""","""","2021-08-17 18:04:13",96.51.153.237,"Mozilla/5.0 (Macintosh; Intel Mac OS X 10_14_4) AppleWebKit/537.36 (KHTML, like Gecko) Chrome/90.0.4430.212 Safari/537.36",Macintosh,Chrome,90.0.4430.212,"OS X",10_14_4,5f461dd6c139dd6b46c7596cbd57cd79
228,1,"""","""","""","""","""",sampler,80,226978,0.0-6.0-74.0,"""","""","""","""","""","""","""","""","""","""","""","""","2021-08-17 18:04:13",96.51.153.237,"Mozilla/5.0 (Macintosh; Intel Mac OS X 10_14_4) AppleWebKit/537.36 (KHTML, like Gecko) Chrome/90.0.4430.212 Safari/537.36",Macintosh,Chrome,90.0.4430.212,"OS X",10_14_4,5f461dd6c139dd6b46c7596cbd57cd79
228,1,"""","""","""","""","""",sampler,81,226978,0.0-6.0-75.0,"""","""","""","""","""","""","""","""","""","""","""","""","2021-08-17 18:04:13",96.51.153.237,"Mozilla/5.0 (Macintosh; Intel Mac OS X 10_14_4) AppleWebKit/537.36 (KHTML, like Gecko) Chrome/90.0.4430.212 Safari/537.36",Macintosh,Chrome,90.0.4430.212,"OS X",10_14_4,5f461dd6c139dd6b46c7596cbd57cd79
228,1,"""","""","""","""","""",sampler,82,226978,0.0-6.0-76.0,"""","""","""","""","""","""","""","""","""","""","""","""","2021-08-17 18:04:13",96.51.153.237,"Mozilla/5.0 (Macintosh; Intel Mac OS X 10_14_4) AppleWebKit/537.36 (KHTML, like Gecko) Chrome/90.0.4430.212 Safari/537.36",Macintosh,Chrome,90.0.4430.212,"OS X",10_14_4,5f461dd6c139dd6b46c7596cbd57cd79
228,1,"""","""","""","""","""",sampler,83,226978,0.0-6.0-77.0,"""","""","""","""","""","""","""","""","""","""","""","""","2021-08-17 18:04:13",96.51.153.237,"Mozilla/5.0 (Macintosh; Intel Mac OS X 10_14_4) AppleWebKit/537.36 (KHTML, like Gecko) Chrome/90.0.4430.212 Safari/537.36",Macintosh,Chrome,90.0.4430.212,"OS X",10_14_4,5f461dd6c139dd6b46c7596cbd57cd79
228,1,"""","""","""","""","""",sampler,84,226979,0.0-6.0-78.0,"""","""","""","""","""","""","""","""","""","""","""","""","2021-08-17 18:04:13",96.51.153.237,"Mozilla/5.0 (Macintosh; Intel Mac OS X 10_14_4) AppleWebKit/537.36 (KHTML, like Gecko) Chrome/90.0.4430.212 Safari/537.36",Macintosh,Chrome,90.0.4430.212,"OS X",10_14_4,5f461dd6c139dd6b46c7596cbd57cd79
228,1,"""","""","""","""","""",sampler,85,226979,0.0-6.0-79.0,"""","""","""","""","""","""","""","""","""","""","""","""","2021-08-17 18:04:13",96.51.153.237,"Mozilla/5.0 (Macintosh; Intel Mac OS X 10_14_4) AppleWebKit/537.36 (KHTML, like Gecko) Chrome/90.0.4430.212 Safari/537.36",Macintosh,Chrome,90.0.4430.212,"OS X",10_14_4,5f461dd6c139dd6b46c7596cbd57cd79
228,1,"""","""","""","""","""",sampler,86,226979,0.0-6.0-80.0,"""","""","""","""","""","""","""","""","""","""","""","""","2021-08-17 18:04:13",96.51.153.237,"Mozilla/5.0 (Macintosh; Intel Mac OS X 10_14_4) AppleWebKit/537.36 (KHTML, like Gecko) Chrome/90.0.4430.212 Safari/537.36",Macintosh,Chrome,90.0.4430.212,"OS X",10_14_4,5f461dd6c139dd6b46c7596cbd57cd79
228,1,"""","""","""","""","""",sampler,87,226979,0.0-6.0-81.0,"""","""","""","""","""","""","""","""","""","""","""","""","2021-08-17 18:04:13",96.51.153.237,"Mozilla/5.0 (Macintosh; Intel Mac OS X 10_14_4) AppleWebKit/537.36 (KHTML, like Gecko) Chrome/90.0.4430.212 Safari/537.36",Macintosh,Chrome,90.0.4430.212,"OS X",10_14_4,5f461dd6c139dd6b46c7596cbd57cd79
228,1,"""","""","""","""","""",sampler,88,226980,0.0-6.0-82.0,"""","""","""","""","""","""","""","""","""","""","""","""","2021-08-17 18:04:13",96.51.153.237,"Mozilla/5.0 (Macintosh; Intel Mac OS X 10_14_4) AppleWebKit/537.36 (KHTML, like Gecko) Chrome/90.0.4430.212 Safari/537.36",Macintosh,Chrome,90.0.4430.212,"OS X",10_14_4,5f461dd6c139dd6b46c7596cbd57cd79
228,1,"""","""","""","""","""",sampler,89,226980,0.0-6.0-83.0,"""","""","""","""","""","""","""","""","""","""","""","""","2021-08-17 18:04:13",96.51.153.237,"Mozilla/5.0 (Macintosh; Intel Mac OS X 10_14_4) AppleWebKit/537.36 (KHTML, like Gecko) Chrome/90.0.4430.212 Safari/537.36",Macintosh,Chrome,90.0.4430.212,"OS X",10_14_4,5f461dd6c139dd6b46c7596cbd57cd79
228,1,"""","""","""","""","""",sampler,90,226980,0.0-6.0-84.0,"""","""","""","""","""","""","""","""","""","""","""","""","2021-08-17 18:04:13",96.51.153.237,"Mozilla/5.0 (Macintosh; Intel Mac OS X 10_14_4) AppleWebKit/537.36 (KHTML, like Gecko) Chrome/90.0.4430.212 Safari/537.36",Macintosh,Chrome,90.0.4430.212,"OS X",10_14_4,5f461dd6c139dd6b46c7596cbd57cd79
228,1,"""","""","""","""","""",sampler,91,226980,0.0-6.0-85.0,"""","""","""","""","""","""","""","""","""","""","""","""","2021-08-17 18:04:13",96.51.153.237,"Mozilla/5.0 (Macintosh; Intel Mac OS X 10_14_4) AppleWebKit/537.36 (KHTML, like Gecko) Chrome/90.0.4430.212 Safari/537.36",Macintosh,Chrome,90.0.4430.212,"OS X",10_14_4,5f461dd6c139dd6b46c7596cbd57cd79
228,1,"""","""","""","""","""",sampler,92,226980,0.0-6.0-86.0,"""","""","""","""","""","""","""","""","""","""","""","""","2021-08-17 18:04:13",96.51.153.237,"Mozilla/5.0 (Macintosh; Intel Mac OS X 10_14_4) AppleWebKit/537.36 (KHTML, like Gecko) Chrome/90.0.4430.212 Safari/537.36",Macintosh,Chrome,90.0.4430.212,"OS X",10_14_4,5f461dd6c139dd6b46c7596cbd57cd79
228,1,"""","""","""","""","""",sampler,93,226981,0.0-6.0-87.0,"""","""","""","""","""","""","""","""","""","""","""","""","2021-08-17 18:04:13",96.51.153.237,"Mozilla/5.0 (Macintosh; Intel Mac OS X 10_14_4) AppleWebKit/537.36 (KHTML, like Gecko) Chrome/90.0.4430.212 Safari/537.36",Macintosh,Chrome,90.0.4430.212,"OS X",10_14_4,5f461dd6c139dd6b46c7596cbd57cd79
228,1,"""","""","""","""","""",sampler,94,226981,0.0-6.0-88.0,"""","""","""","""","""","""","""","""","""","""","""","""","2021-08-17 18:04:13",96.51.153.237,"Mozilla/5.0 (Macintosh; Intel Mac OS X 10_14_4) AppleWebKit/537.36 (KHTML, like Gecko) Chrome/90.0.4430.212 Safari/537.36",Macintosh,Chrome,90.0.4430.212,"OS X",10_14_4,5f461dd6c139dd6b46c7596cbd57cd79
228,1,"""","""","""","""","""",sampler,95,226981,0.0-6.0-89.0,"""","""","""","""","""","""","""","""","""","""","""","""","2021-08-17 18:04:13",96.51.153.237,"Mozilla/5.0 (Macintosh; Intel Mac OS X 10_14_4) AppleWebKit/537.36 (KHTML, like Gecko) Chrome/90.0.4430.212 Safari/537.36",Macintosh,Chrome,90.0.4430.212,"OS X",10_14_4,5f461dd6c139dd6b46c7596cbd57cd79
228,1,"""","""","""","""","""",sampler,96,226981,0.0-6.0-90.0,"""","""","""","""","""","""","""","""","""","""","""","""","2021-08-17 18:04:13",96.51.153.237,"Mozilla/5.0 (Macintosh; Intel Mac OS X 10_14_4) AppleWebKit/537.36 (KHTML, like Gecko) Chrome/90.0.4430.212 Safari/537.36",Macintosh,Chrome,90.0.4430.212,"OS X",10_14_4,5f461dd6c139dd6b46c7596cbd57cd79
228,1,"""","""","""","""","""",sampler,97,226981,0.0-6.0-91.0,"""","""","""","""","""","""","""","""","""","""","""","""","2021-08-17 18:04:13",96.51.153.237,"Mozilla/5.0 (Macintosh; Intel Mac OS X 10_14_4) AppleWebKit/537.36 (KHTML, like Gecko) Chrome/90.0.4430.212 Safari/537.36",Macintosh,Chrome,90.0.4430.212,"OS X",10_14_4,5f461dd6c139dd6b46c7596cbd57cd79
228,1,"""","""","""","""","""",sampler,98,226981,0.0-6.0-92.0,"""","""","""","""","""","""","""","""","""","""","""","""","2021-08-17 18:04:13",96.51.153.237,"Mozilla/5.0 (Macintosh; Intel Mac OS X 10_14_4) AppleWebKit/537.36 (KHTML, like Gecko) Chrome/90.0.4430.212 Safari/537.36",Macintosh,Chrome,90.0.4430.212,"OS X",10_14_4,5f461dd6c139dd6b46c7596cbd57cd79
228,1,"""","""","""","""","""",sampler,99,226982,0.0-6.0-93.0,"""","""","""","""","""","""","""","""","""","""","""","""","2021-08-17 18:04:13",96.51.153.237,"Mozilla/5.0 (Macintosh; Intel Mac OS X 10_14_4) AppleWebKit/537.36 (KHTML, like Gecko) Chrome/90.0.4430.212 Safari/537.36",Macintosh,Chrome,90.0.4430.212,"OS X",10_14_4,5f461dd6c139dd6b46c7596cbd57cd79
228,1,"""","""","""","""","""",sampler,100,226982,0.0-6.0-94.0,"""","""","""","""","""","""","""","""","""","""","""","""","2021-08-17 18:04:13",96.51.153.237,"Mozilla/5.0 (Macintosh; Intel Mac OS X 10_14_4) AppleWebKit/537.36 (KHTML, like Gecko) Chrome/90.0.4430.212 Safari/537.36",Macintosh,Chrome,90.0.4430.212,"OS X",10_14_4,5f461dd6c139dd6b46c7596cbd57cd79
228,1,"""","""","""","""","""",sampler,101,226982,0.0-6.0-95.0,"""","""","""","""","""","""","""","""","""","""","""","""","2021-08-17 18:04:13",96.51.153.237,"Mozilla/5.0 (Macintosh; Intel Mac OS X 10_14_4) AppleWebKit/537.36 (KHTML, like Gecko) Chrome/90.0.4430.212 Safari/537.36",Macintosh,Chrome,90.0.4430.212,"OS X",10_14_4,5f461dd6c139dd6b46c7596cbd57cd79
228,1,"""","""","""","""","""",sampler,102,226982,0.0-6.0-96.0,"""","""","""","""","""","""","""","""","""","""","""","""","2021-08-17 18:04:13",96.51.153.237,"Mozilla/5.0 (Macintosh; Intel Mac OS X 10_14_4) AppleWebKit/537.36 (KHTML, like Gecko) Chrome/90.0.4430.212 Safari/537.36",Macintosh,Chrome,90.0.4430.212,"OS X",10_14_4,5f461dd6c139dd6b46c7596cbd57cd79
228,1,"""","""","""","""","""",sampler,103,226982,0.0-6.0-97.0,"""","""","""","""","""","""","""","""","""","""","""","""","2021-08-17 18:04:13",96.51.153.237,"Mozilla/5.0 (Macintosh; Intel Mac OS X 10_14_4) AppleWebKit/537.36 (KHTML, like Gecko) Chrome/90.0.4430.212 Safari/537.36",Macintosh,Chrome,90.0.4430.212,"OS X",10_14_4,5f461dd6c139dd6b46c7596cbd57cd79
228,1,"""","""","""","""","""",sampler,104,226982,0.0-6.0-98.0,"""","""","""","""","""","""","""","""","""","""","""","""","2021-08-17 18:04:13",96.51.153.237,"Mozilla/5.0 (Macintosh; Intel Mac OS X 10_14_4) AppleWebKit/537.36 (KHTML, like Gecko) Chrome/90.0.4430.212 Safari/537.36",Macintosh,Chrome,90.0.4430.212,"OS X",10_14_4,5f461dd6c139dd6b46c7596cbd57cd79
228,1,"""","""","""","""","""",sampler,105,226984,0.0-6.0-99.0,"""","""","""","""","""","""","""","""","""","""","""","""","2021-08-17 18:04:13",96.51.153.237,"Mozilla/5.0 (Macintosh; Intel Mac OS X 10_14_4) AppleWebKit/537.36 (KHTML, like Gecko) Chrome/90.0.4430.212 Safari/537.36",Macintosh,Chrome,90.0.4430.212,"OS X",10_14_4,5f461dd6c139dd6b46c7596cbd57cd79
228,1,"""","""","""","""","""",sampler,106,226984,0.0-6.0-100.0,"""","""","""","""","""","""","""","""","""","""","""","""","2021-08-17 18:04:13",96.51.153.237,"Mozilla/5.0 (Macintosh; Intel Mac OS X 10_14_4) AppleWebKit/537.36 (KHTML, like Gecko) Chrome/90.0.4430.212 Safari/537.36",Macintosh,Chrome,90.0.4430.212,"OS X",10_14_4,5f461dd6c139dd6b46c7596cbd57cd79
228,1,"""","""","""","""","""",sampler,107,226984,0.0-6.0-101.0,"""","""","""","""","""","""","""","""","""","""","""","""","2021-08-17 18:04:13",96.51.153.237,"Mozilla/5.0 (Macintosh; Intel Mac OS X 10_14_4) AppleWebKit/537.36 (KHTML, like Gecko) Chrome/90.0.4430.212 Safari/537.36",Macintosh,Chrome,90.0.4430.212,"OS X",10_14_4,5f461dd6c139dd6b46c7596cbd57cd79
228,1,"""","""","""","""","""",sampler,108,226984,0.0-6.0-102.0,"""","""","""","""","""","""","""","""","""","""","""","""","2021-08-17 18:04:13",96.51.153.237,"Mozilla/5.0 (Macintosh; Intel Mac OS X 10_14_4) AppleWebKit/537.36 (KHTML, like Gecko) Chrome/90.0.4430.212 Safari/537.36",Macintosh,Chrome,90.0.4430.212,"OS X",10_14_4,5f461dd6c139dd6b46c7596cbd57cd79
228,1,"""","""","""","""","""",sampler,109,226984,0.0-6.0-103.0,"""","""","""","""","""","""","""","""","""","""","""","""","2021-08-17 18:04:13",96.51.153.237,"Mozilla/5.0 (Macintosh; Intel Mac OS X 10_14_4) AppleWebKit/537.36 (KHTML, like Gecko) Chrome/90.0.4430.212 Safari/537.36",Macintosh,Chrome,90.0.4430.212,"OS X",10_14_4,5f461dd6c139dd6b46c7596cbd57cd79
228,1,"""","""","""","""","""",sampler,110,226984,0.0-6.0-104.0,"""","""","""","""","""","""","""","""","""","""","""","""","2021-08-17 18:04:13",96.51.153.237,"Mozilla/5.0 (Macintosh; Intel Mac OS X 10_14_4) AppleWebKit/537.36 (KHTML, like Gecko) Chrome/90.0.4430.212 Safari/537.36",Macintosh,Chrome,90.0.4430.212,"OS X",10_14_4,5f461dd6c139dd6b46c7596cbd57cd79
228,1,"""","""","""","""","""",sampler,111,226984,0.0-6.0-105.0,"""","""","""","""","""","""","""","""","""","""","""","""","2021-08-17 18:04:13",96.51.153.237,"Mozilla/5.0 (Macintosh; Intel Mac OS X 10_14_4) AppleWebKit/537.36 (KHTML, like Gecko) Chrome/90.0.4430.212 Safari/537.36",Macintosh,Chrome,90.0.4430.212,"OS X",10_14_4,5f461dd6c139dd6b46c7596cbd57cd79
228,1,"""","""","""","""","""",sampler,112,226985,0.0-6.0-106.0,"""","""","""","""","""","""","""","""","""","""","""","""","2021-08-17 18:04:13",96.51.153.237,"Mozilla/5.0 (Macintosh; Intel Mac OS X 10_14_4) AppleWebKit/537.36 (KHTML, like Gecko) Chrome/90.0.4430.212 Safari/537.36",Macintosh,Chrome,90.0.4430.212,"OS X",10_14_4,5f461dd6c139dd6b46c7596cbd57cd79
228,1,"""","""","""","""","""",sampler,113,226985,0.0-6.0-107.0,"""","""","""","""","""","""","""","""","""","""","""","""","2021-08-17 18:04:13",96.51.153.237,"Mozilla/5.0 (Macintosh; Intel Mac OS X 10_14_4) AppleWebKit/537.36 (KHTML, like Gecko) Chrome/90.0.4430.212 Safari/537.36",Macintosh,Chrome,90.0.4430.212,"OS X",10_14_4,5f461dd6c139dd6b46c7596cbd57cd79
228,1,"""","""","""","""","""",sampler,114,226985,0.0-6.0-108.0,"""","""","""","""","""","""","""","""","""","""","""","""","2021-08-17 18:04:13",96.51.153.237,"Mozilla/5.0 (Macintosh; Intel Mac OS X 10_14_4) AppleWebKit/537.36 (KHTML, like Gecko) Chrome/90.0.4430.212 Safari/537.36",Macintosh,Chrome,90.0.4430.212,"OS X",10_14_4,5f461dd6c139dd6b46c7596cbd57cd79
228,1,"""","""","""","""","""",sampler,115,226985,0.0-6.0-109.0,"""","""","""","""","""","""","""","""","""","""","""","""","2021-08-17 18:04:13",96.51.153.237,"Mozilla/5.0 (Macintosh; Intel Mac OS X 10_14_4) AppleWebKit/537.36 (KHTML, like Gecko) Chrome/90.0.4430.212 Safari/537.36",Macintosh,Chrome,90.0.4430.212,"OS X",10_14_4,5f461dd6c139dd6b46c7596cbd57cd79
228,1,"""","""","""","""","""",sampler,116,226985,0.0-6.0-110.0,"""","""","""","""","""","""","""","""","""","""","""","""","2021-08-17 18:04:13",96.51.153.237,"Mozilla/5.0 (Macintosh; Intel Mac OS X 10_14_4) AppleWebKit/537.36 (KHTML, like Gecko) Chrome/90.0.4430.212 Safari/537.36",Macintosh,Chrome,90.0.4430.212,"OS X",10_14_4,5f461dd6c139dd6b46c7596cbd57cd79
228,1,"""","""","""","""","""",sampler,117,226985,0.0-6.0-111.0,"""","""","""","""","""","""","""","""","""","""","""","""","2021-08-17 18:04:13",96.51.153.237,"Mozilla/5.0 (Macintosh; Intel Mac OS X 10_14_4) AppleWebKit/537.36 (KHTML, like Gecko) Chrome/90.0.4430.212 Safari/537.36",Macintosh,Chrome,90.0.4430.212,"OS X",10_14_4,5f461dd6c139dd6b46c7596cbd57cd79
228,1,"""","""","""","""","""",sampler,118,226985,0.0-6.0-112.0,"""","""","""","""","""","""","""","""","""","""","""","""","2021-08-17 18:04:13",96.51.153.237,"Mozilla/5.0 (Macintosh; Intel Mac OS X 10_14_4) AppleWebKit/537.36 (KHTML, like Gecko) Chrome/90.0.4430.212 Safari/537.36",Macintosh,Chrome,90.0.4430.212,"OS X",10_14_4,5f461dd6c139dd6b46c7596cbd57cd79
228,1,"""","""","""","""","""",sampler,119,226986,0.0-6.0-113.0,"""","""","""","""","""","""","""","""","""","""","""","""","2021-08-17 18:04:13",96.51.153.237,"Mozilla/5.0 (Macintosh; Intel Mac OS X 10_14_4) AppleWebKit/537.36 (KHTML, like Gecko) Chrome/90.0.4430.212 Safari/537.36",Macintosh,Chrome,90.0.4430.212,"OS X",10_14_4,5f461dd6c139dd6b46c7596cbd57cd79
228,1,"""","""","""","""","""",sampler,120,226986,0.0-6.0-114.0,"""","""","""","""","""","""","""","""","""","""","""","""","2021-08-17 18:04:13",96.51.153.237,"Mozilla/5.0 (Macintosh; Intel Mac OS X 10_14_4) AppleWebKit/537.36 (KHTML, like Gecko) Chrome/90.0.4430.212 Safari/537.36",Macintosh,Chrome,90.0.4430.212,"OS X",10_14_4,5f461dd6c139dd6b46c7596cbd57cd79
228,1,"""","""","""","""","""",sampler,121,226986,0.0-6.0-115.0,"""","""","""","""","""","""","""","""","""","""","""","""","2021-08-17 18:04:13",96.51.153.237,"Mozilla/5.0 (Macintosh; Intel Mac OS X 10_14_4) AppleWebKit/537.36 (KHTML, like Gecko) Chrome/90.0.4430.212 Safari/537.36",Macintosh,Chrome,90.0.4430.212,"OS X",10_14_4,5f461dd6c139dd6b46c7596cbd57cd79
228,1,"""","""","""","""","""",sampler,122,226986,0.0-6.0-116.0,"""","""","""","""","""","""","""","""","""","""","""","""","2021-08-17 18:04:13",96.51.153.237,"Mozilla/5.0 (Macintosh; Intel Mac OS X 10_14_4) AppleWebKit/537.36 (KHTML, like Gecko) Chrome/90.0.4430.212 Safari/537.36",Macintosh,Chrome,90.0.4430.212,"OS X",10_14_4,5f461dd6c139dd6b46c7596cbd57cd79
228,1,"""","""","""","""","""",sampler,123,226986,0.0-6.0-117.0,"""","""","""","""","""","""","""","""","""","""","""","""","2021-08-17 18:04:13",96.51.153.237,"Mozilla/5.0 (Macintosh; Intel Mac OS X 10_14_4) AppleWebKit/537.36 (KHTML, like Gecko) Chrome/90.0.4430.212 Safari/537.36",Macintosh,Chrome,90.0.4430.212,"OS X",10_14_4,5f461dd6c139dd6b46c7596cbd57cd79
228,1,"""","""","""","""","""",sampler,124,226986,0.0-6.0-118.0,"""","""","""","""","""","""","""","""","""","""","""","""","2021-08-17 18:04:13",96.51.153.237,"Mozilla/5.0 (Macintosh; Intel Mac OS X 10_14_4) AppleWebKit/537.36 (KHTML, like Gecko) Chrome/90.0.4430.212 Safari/537.36",Macintosh,Chrome,90.0.4430.212,"OS X",10_14_4,5f461dd6c139dd6b46c7596cbd57cd79
228,1,"""","""","""","""","""",sampler,125,226986,0.0-6.0-119.0,"""","""","""","""","""","""","""","""","""","""","""","""","2021-08-17 18:04:13",96.51.153.237,"Mozilla/5.0 (Macintosh; Intel Mac OS X 10_14_4) AppleWebKit/537.36 (KHTML, like Gecko) Chrome/90.0.4430.212 Safari/537.36",Macintosh,Chrome,90.0.4430.212,"OS X",10_14_4,5f461dd6c139dd6b46c7596cbd57cd79
228,1,"""","""","""","""","""",sampler,126,226987,0.0-6.0-120.0,"""","""","""","""","""","""","""","""","""","""","""","""","2021-08-17 18:04:13",96.51.153.237,"Mozilla/5.0 (Macintosh; Intel Mac OS X 10_14_4) AppleWebKit/537.36 (KHTML, like Gecko) Chrome/90.0.4430.212 Safari/537.36",Macintosh,Chrome,90.0.4430.212,"OS X",10_14_4,5f461dd6c139dd6b46c7596cbd57cd79
228,1,"""","""","""","""","""",sampler,127,226987,0.0-6.0-121.0,"""","""","""","""","""","""","""","""","""","""","""","""","2021-08-17 18:04:13",96.51.153.237,"Mozilla/5.0 (Macintosh; Intel Mac OS X 10_14_4) AppleWebKit/537.36 (KHTML, like Gecko) Chrome/90.0.4430.212 Safari/537.36",Macintosh,Chrome,90.0.4430.212,"OS X",10_14_4,5f461dd6c139dd6b46c7596cbd57cd79
228,1,"""","""","""","""","""",sampler,128,226987,0.0-6.0-122.0,"""","""","""","""","""","""","""","""","""","""","""","""","2021-08-17 18:04:13",96.51.153.237,"Mozilla/5.0 (Macintosh; Intel Mac OS X 10_14_4) AppleWebKit/537.36 (KHTML, like Gecko) Chrome/90.0.4430.212 Safari/537.36",Macintosh,Chrome,90.0.4430.212,"OS X",10_14_4,5f461dd6c139dd6b46c7596cbd57cd79
228,1,"""","""","""","""","""",sampler,129,226987,0.0-6.0-123.0,"""","""","""","""","""","""","""","""","""","""","""","""","2021-08-17 18:04:13",96.51.153.237,"Mozilla/5.0 (Macintosh; Intel Mac OS X 10_14_4) AppleWebKit/537.36 (KHTML, like Gecko) Chrome/90.0.4430.212 Safari/537.36",Macintosh,Chrome,90.0.4430.212,"OS X",10_14_4,5f461dd6c139dd6b46c7596cbd57cd79
228,1,"""","""","""","""","""",sampler,130,226987,0.0-6.0-124.0,"""","""","""","""","""","""","""","""","""","""","""","""","2021-08-17 18:04:13",96.51.153.237,"Mozilla/5.0 (Macintosh; Intel Mac OS X 10_14_4) AppleWebKit/537.36 (KHTML, like Gecko) Chrome/90.0.4430.212 Safari/537.36",Macintosh,Chrome,90.0.4430.212,"OS X",10_14_4,5f461dd6c139dd6b46c7596cbd57cd79
228,1,"""","""","""","""","""",sampler,131,226987,0.0-6.0-125.0,"""","""","""","""","""","""","""","""","""","""","""","""","2021-08-17 18:04:13",96.51.153.237,"Mozilla/5.0 (Macintosh; Intel Mac OS X 10_14_4) AppleWebKit/537.36 (KHTML, like Gecko) Chrome/90.0.4430.212 Safari/537.36",Macintosh,Chrome,90.0.4430.212,"OS X",10_14_4,5f461dd6c139dd6b46c7596cbd57cd79
228,1,"""","""","""","""","""",sampler,132,226987,0.0-6.0-126.0,"""","""","""","""","""","""","""","""","""","""","""","""","2021-08-17 18:04:13",96.51.153.237,"Mozilla/5.0 (Macintosh; Intel Mac OS X 10_14_4) AppleWebKit/537.36 (KHTML, like Gecko) Chrome/90.0.4430.212 Safari/537.36",Macintosh,Chrome,90.0.4430.212,"OS X",10_14_4,5f461dd6c139dd6b46c7596cbd57cd79
228,1,"""","""","""","""","""",sampler,133,226988,0.0-6.0-127.0,"""","""","""","""","""","""","""","""","""","""","""","""","2021-08-17 18:04:13",96.51.153.237,"Mozilla/5.0 (Macintosh; Intel Mac OS X 10_14_4) AppleWebKit/537.36 (KHTML, like Gecko) Chrome/90.0.4430.212 Safari/537.36",Macintosh,Chrome,90.0.4430.212,"OS X",10_14_4,5f461dd6c139dd6b46c7596cbd57cd79
228,1,"""","""","""","""","""",sampler,134,226988,0.0-6.0-128.0,"""","""","""","""","""","""","""","""","""","""","""","""","2021-08-17 18:04:13",96.51.153.237,"Mozilla/5.0 (Macintosh; Intel Mac OS X 10_14_4) AppleWebKit/537.36 (KHTML, like Gecko) Chrome/90.0.4430.212 Safari/537.36",Macintosh,Chrome,90.0.4430.212,"OS X",10_14_4,5f461dd6c139dd6b46c7596cbd57cd79
228,1,"""","""","""","""","""",sampler,135,226988,0.0-6.0-129.0,"""","""","""","""","""","""","""","""","""","""","""","""","2021-08-17 18:04:13",96.51.153.237,"Mozilla/5.0 (Macintosh; Intel Mac OS X 10_14_4) AppleWebKit/537.36 (KHTML, like Gecko) Chrome/90.0.4430.212 Safari/537.36",Macintosh,Chrome,90.0.4430.212,"OS X",10_14_4,5f461dd6c139dd6b46c7596cbd57cd79
228,1,"""","""","""","""","""",sampler,136,226988,0.0-6.0-130.0,"""","""","""","""","""","""","""","""","""","""","""","""","2021-08-17 18:04:13",96.51.153.237,"Mozilla/5.0 (Macintosh; Intel Mac OS X 10_14_4) AppleWebKit/537.36 (KHTML, like Gecko) Chrome/90.0.4430.212 Safari/537.36",Macintosh,Chrome,90.0.4430.212,"OS X",10_14_4,5f461dd6c139dd6b46c7596cbd57cd79
228,1,"""","""","""","""","""",sampler,137,226988,0.0-6.0-131.0,"""","""","""","""","""","""","""","""","""","""","""","""","2021-08-17 18:04:13",96.51.153.237,"Mozilla/5.0 (Macintosh; Intel Mac OS X 10_14_4) AppleWebKit/537.36 (KHTML, like Gecko) Chrome/90.0.4430.212 Safari/537.36",Macintosh,Chrome,90.0.4430.212,"OS X",10_14_4,5f461dd6c139dd6b46c7596cbd57cd79
228,1,"""","""","""","""","""",sampler,138,226988,0.0-6.0-132.0,"""","""","""","""","""","""","""","""","""","""","""","""","2021-08-17 18:04:13",96.51.153.237,"Mozilla/5.0 (Macintosh; Intel Mac OS X 10_14_4) AppleWebKit/537.36 (KHTML, like Gecko) Chrome/90.0.4430.212 Safari/537.36",Macintosh,Chrome,90.0.4430.212,"OS X",10_14_4,5f461dd6c139dd6b46c7596cbd57cd79
228,1,"""","""","""","""","""",sampler,139,226988,0.0-6.0-133.0,"""","""","""","""","""","""","""","""","""","""","""","""","2021-08-17 18:04:13",96.51.153.237,"Mozilla/5.0 (Macintosh; Intel Mac OS X 10_14_4) AppleWebKit/537.36 (KHTML, like Gecko) Chrome/90.0.4430.212 Safari/537.36",Macintosh,Chrome,90.0.4430.212,"OS X",10_14_4,5f461dd6c139dd6b46c7596cbd57cd79
228,1,"""","""","""","""","""",sampler,140,226989,0.0-6.0-134.0,"""","""","""","""","""","""","""","""","""","""","""","""","2021-08-17 18:04:13",96.51.153.237,"Mozilla/5.0 (Macintosh; Intel Mac OS X 10_14_4) AppleWebKit/537.36 (KHTML, like Gecko) Chrome/90.0.4430.212 Safari/537.36",Macintosh,Chrome,90.0.4430.212,"OS X",10_14_4,5f461dd6c139dd6b46c7596cbd57cd79
228,1,"""","""","""","""","""",sampler,141,226989,0.0-6.0-135.0,"""","""","""","""","""","""","""","""","""","""","""","""","2021-08-17 18:04:13",96.51.153.237,"Mozilla/5.0 (Macintosh; Intel Mac OS X 10_14_4) AppleWebKit/537.36 (KHTML, like Gecko) Chrome/90.0.4430.212 Safari/537.36",Macintosh,Chrome,90.0.4430.212,"OS X",10_14_4,5f461dd6c139dd6b46c7596cbd57cd79
228,1,"""","""","""","""","""",sampler,142,226989,0.0-6.0-136.0,"""","""","""","""","""","""","""","""","""","""","""","""","2021-08-17 18:04:13",96.51.153.237,"Mozilla/5.0 (Macintosh; Intel Mac OS X 10_14_4) AppleWebKit/537.36 (KHTML, like Gecko) Chrome/90.0.4430.212 Safari/537.36",Macintosh,Chrome,90.0.4430.212,"OS X",10_14_4,5f461dd6c139dd6b46c7596cbd57cd79
228,1,"""","""","""","""","""",sampler,143,226989,0.0-6.0-137.0,"""","""","""","""","""","""","""","""","""","""","""","""","2021-08-17 18:04:13",96.51.153.237,"Mozilla/5.0 (Macintosh; Intel Mac OS X 10_14_4) AppleWebKit/537.36 (KHTML, like Gecko) Chrome/90.0.4430.212 Safari/537.36",Macintosh,Chrome,90.0.4430.212,"OS X",10_14_4,5f461dd6c139dd6b46c7596cbd57cd79
228,1,"""","""","""","""","""",sampler,144,226989,0.0-6.0-138.0,"""","""","""","""","""","""","""","""","""","""","""","""","2021-08-17 18:04:13",96.51.153.237,"Mozilla/5.0 (Macintosh; Intel Mac OS X 10_14_4) AppleWebKit/537.36 (KHTML, like Gecko) Chrome/90.0.4430.212 Safari/537.36",Macintosh,Chrome,90.0.4430.212,"OS X",10_14_4,5f461dd6c139dd6b46c7596cbd57cd79
228,1,"""","""","""","""","""",sampler,145,226989,0.0-6.0-139.0,"""","""","""","""","""","""","""","""","""","""","""","""","2021-08-17 18:04:13",96.51.153.237,"Mozilla/5.0 (Macintosh; Intel Mac OS X 10_14_4) AppleWebKit/537.36 (KHTML, like Gecko) Chrome/90.0.4430.212 Safari/537.36",Macintosh,Chrome,90.0.4430.212,"OS X",10_14_4,5f461dd6c139dd6b46c7596cbd57cd79
228,1,"""","""","""","""","""",sampler,146,226989,0.0-6.0-140.0,"""","""","""","""","""","""","""","""","""","""","""","""","2021-08-17 18:04:13",96.51.153.237,"Mozilla/5.0 (Macintosh; Intel Mac OS X 10_14_4) AppleWebKit/537.36 (KHTML, like Gecko) Chrome/90.0.4430.212 Safari/537.36",Macintosh,Chrome,90.0.4430.212,"OS X",10_14_4,5f461dd6c139dd6b46c7596cbd57cd79
228,1,"""","""","""","""","""",sampler,147,226989,0.0-6.0-141.0,"""","""","""","""","""","""","""","""","""","""","""","""","2021-08-17 18:04:13",96.51.153.237,"Mozilla/5.0 (Macintosh; Intel Mac OS X 10_14_4) AppleWebKit/537.36 (KHTML, like Gecko) Chrome/90.0.4430.212 Safari/537.36",Macintosh,Chrome,90.0.4430.212,"OS X",10_14_4,5f461dd6c139dd6b46c7596cbd57cd79
228,1,"""","""","""","""","""",sampler,148,226989,0.0-6.0-142.0,"""","""","""","""","""","""","""","""","""","""","""","""","2021-08-17 18:04:13",96.51.153.237,"Mozilla/5.0 (Macintosh; Intel Mac OS X 10_14_4) AppleWebKit/537.36 (KHTML, like Gecko) Chrome/90.0.4430.212 Safari/537.36",Macintosh,Chrome,90.0.4430.212,"OS X",10_14_4,5f461dd6c139dd6b46c7596cbd57cd79
228,1,"""","""","""","""","""",sampler,149,226989,0.0-6.0-143.0,"""","""","""","""","""","""","""","""","""","""","""","""","2021-08-17 18:04:13",96.51.153.237,"Mozilla/5.0 (Macintosh; Intel Mac OS X 10_14_4) AppleWebKit/537.36 (KHTML, like Gecko) Chrome/90.0.4430.212 Safari/537.36",Macintosh,Chrome,90.0.4430.212,"OS X",10_14_4,5f461dd6c139dd6b46c7596cbd57cd79
228,1,"""","""","""","""","""",sampler,150,226990,0.0-6.0-144.0,"""","""","""","""","""","""","""","""","""","""","""","""","2021-08-17 18:04:13",96.51.153.237,"Mozilla/5.0 (Macintosh; Intel Mac OS X 10_14_4) AppleWebKit/537.36 (KHTML, like Gecko) Chrome/90.0.4430.212 Safari/537.36",Macintosh,Chrome,90.0.4430.212,"OS X",10_14_4,5f461dd6c139dd6b46c7596cbd57cd79
228,1,"""","""","""","""","""",sampler,151,226990,0.0-6.0-145.0,"""","""","""","""","""","""","""","""","""","""","""","""","2021-08-17 18:04:13",96.51.153.237,"Mozilla/5.0 (Macintosh; Intel Mac OS X 10_14_4) AppleWebKit/537.36 (KHTML, like Gecko) Chrome/90.0.4430.212 Safari/537.36",Macintosh,Chrome,90.0.4430.212,"OS X",10_14_4,5f461dd6c139dd6b46c7596cbd57cd79
228,1,"""","""","""","""","""",sampler,152,226990,0.0-6.0-146.0,"""","""","""","""","""","""","""","""","""","""","""","""","2021-08-17 18:04:13",96.51.153.237,"Mozilla/5.0 (Macintosh; Intel Mac OS X 10_14_4) AppleWebKit/537.36 (KHTML, like Gecko) Chrome/90.0.4430.212 Safari/537.36",Macintosh,Chrome,90.0.4430.212,"OS X",10_14_4,5f461dd6c139dd6b46c7596cbd57cd79
228,1,"""","""","""","""","""",sampler,153,226990,0.0-6.0-147.0,"""","""","""","""","""","""","""","""","""","""","""","""","2021-08-17 18:04:13",96.51.153.237,"Mozilla/5.0 (Macintosh; Intel Mac OS X 10_14_4) AppleWebKit/537.36 (KHTML, like Gecko) Chrome/90.0.4430.212 Safari/537.36",Macintosh,Chrome,90.0.4430.212,"OS X",10_14_4,5f461dd6c139dd6b46c7596cbd57cd79
228,1,"""","""","""","""","""",sampler,154,226990,0.0-6.0-148.0,"""","""","""","""","""","""","""","""","""","""","""","""","2021-08-17 18:04:13",96.51.153.237,"Mozilla/5.0 (Macintosh; Intel Mac OS X 10_14_4) AppleWebKit/537.36 (KHTML, like Gecko) Chrome/90.0.4430.212 Safari/537.36",Macintosh,Chrome,90.0.4430.212,"OS X",10_14_4,5f461dd6c139dd6b46c7596cbd57cd79
228,1,"""","""","""","""","""",sampler,155,226990,0.0-6.0-149.0,"""","""","""","""","""","""","""","""","""","""","""","""","2021-08-17 18:04:13",96.51.153.237,"Mozilla/5.0 (Macintosh; Intel Mac OS X 10_14_4) AppleWebKit/537.36 (KHTML, like Gecko) Chrome/90.0.4430.212 Safari/537.36",Macintosh,Chrome,90.0.4430.212,"OS X",10_14_4,5f461dd6c139dd6b46c7596cbd57cd79
228,1,"""","""","""","""","""",sampler,156,226990,0.0-6.0-150.0,"""","""","""","""","""","""","""","""","""","""","""","""","2021-08-17 18:04:13",96.51.153.237,"Mozilla/5.0 (Macintosh; Intel Mac OS X 10_14_4) AppleWebKit/537.36 (KHTML, like Gecko) Chrome/90.0.4430.212 Safari/537.36",Macintosh,Chrome,90.0.4430.212,"OS X",10_14_4,5f461dd6c139dd6b46c7596cbd57cd79
228,1,"""","""","""","""","""",sampler,157,226990,0.0-6.0-151.0,"""","""","""","""","""","""","""","""","""","""","""","""","2021-08-17 18:04:13",96.51.153.237,"Mozilla/5.0 (Macintosh; Intel Mac OS X 10_14_4) AppleWebKit/537.36 (KHTML, like Gecko) Chrome/90.0.4430.212 Safari/537.36",Macintosh,Chrome,90.0.4430.212,"OS X",10_14_4,5f461dd6c139dd6b46c7596cbd57cd79
228,1,"""","""","""","""","""",sampler,158,226990,0.0-6.0-152.0,"""","""","""","""","""","""","""","""","""","""","""","""","2021-08-17 18:04:13",96.51.153.237,"Mozilla/5.0 (Macintosh; Intel Mac OS X 10_14_4) AppleWebKit/537.36 (KHTML, like Gecko) Chrome/90.0.4430.212 Safari/537.36",Macintosh,Chrome,90.0.4430.212,"OS X",10_14_4,5f461dd6c139dd6b46c7596cbd57cd79
228,1,"""","""","""","""","""",sampler,159,226991,0.0-6.0-153.0,"""","""","""","""","""","""","""","""","""","""","""","""","2021-08-17 18:04:13",96.51.153.237,"Mozilla/5.0 (Macintosh; Intel Mac OS X 10_14_4) AppleWebKit/537.36 (KHTML, like Gecko) Chrome/90.0.4430.212 Safari/537.36",Macintosh,Chrome,90.0.4430.212,"OS X",10_14_4,5f461dd6c139dd6b46c7596cbd57cd79
228,1,"""","""","""","""","""",sampler,160,226991,0.0-6.0-154.0,"""","""","""","""","""","""","""","""","""","""","""","""","2021-08-17 18:04:13",96.51.153.237,"Mozilla/5.0 (Macintosh; Intel Mac OS X 10_14_4) AppleWebKit/537.36 (KHTML, like Gecko) Chrome/90.0.4430.212 Safari/537.36",Macintosh,Chrome,90.0.4430.212,"OS X",10_14_4,5f461dd6c139dd6b46c7596cbd57cd79
228,1,"""","""","""","""","""",sampler,161,226991,0.0-6.0-155.0,"""","""","""","""","""","""","""","""","""","""","""","""","2021-08-17 18:04:13",96.51.153.237,"Mozilla/5.0 (Macintosh; Intel Mac OS X 10_14_4) AppleWebKit/537.36 (KHTML, like Gecko) Chrome/90.0.4430.212 Safari/537.36",Macintosh,Chrome,90.0.4430.212,"OS X",10_14_4,5f461dd6c139dd6b46c7596cbd57cd79
228,1,"""","""","""","""","""",sampler,162,226991,0.0-6.0-156.0,"""","""","""","""","""","""","""","""","""","""","""","""","2021-08-17 18:04:13",96.51.153.237,"Mozilla/5.0 (Macintosh; Intel Mac OS X 10_14_4) AppleWebKit/537.36 (KHTML, like Gecko) Chrome/90.0.4430.212 Safari/537.36",Macintosh,Chrome,90.0.4430.212,"OS X",10_14_4,5f461dd6c139dd6b46c7596cbd57cd79
228,1,"""","""","""","""","""",sampler,163,226991,0.0-6.0-157.0,"""","""","""","""","""","""","""","""","""","""","""","""","2021-08-17 18:04:13",96.51.153.237,"Mozilla/5.0 (Macintosh; Intel Mac OS X 10_14_4) AppleWebKit/537.36 (KHTML, like Gecko) Chrome/90.0.4430.212 Safari/537.36",Macintosh,Chrome,90.0.4430.212,"OS X",10_14_4,5f461dd6c139dd6b46c7596cbd57cd79
228,1,"""","""","""","""","""",sampler,164,226991,0.0-6.0-158.0,"""","""","""","""","""","""","""","""","""","""","""","""","2021-08-17 18:04:13",96.51.153.237,"Mozilla/5.0 (Macintosh; Intel Mac OS X 10_14_4) AppleWebKit/537.36 (KHTML, like Gecko) Chrome/90.0.4430.212 Safari/537.36",Macintosh,Chrome,90.0.4430.212,"OS X",10_14_4,5f461dd6c139dd6b46c7596cbd57cd79
228,1,"""","""","""","""","""",sampler,165,226991,0.0-6.0-159.0,"""","""","""","""","""","""","""","""","""","""","""","""","2021-08-17 18:04:13",96.51.153.237,"Mozilla/5.0 (Macintosh; Intel Mac OS X 10_14_4) AppleWebKit/537.36 (KHTML, like Gecko) Chrome/90.0.4430.212 Safari/537.36",Macintosh,Chrome,90.0.4430.212,"OS X",10_14_4,5f461dd6c139dd6b46c7596cbd57cd79
228,1,"""","""","""","""","""",sampler,166,226991,0.0-6.0-160.0,"""","""","""","""","""","""","""","""","""","""","""","""","2021-08-17 18:04:13",96.51.153.237,"Mozilla/5.0 (Macintosh; Intel Mac OS X 10_14_4) AppleWebKit/537.36 (KHTML, like Gecko) Chrome/90.0.4430.212 Safari/537.36",Macintosh,Chrome,90.0.4430.212,"OS X",10_14_4,5f461dd6c139dd6b46c7596cbd57cd79
228,1,"""","""","""","""","""",sampler,167,226991,0.0-6.0-161.0,"""","""","""","""","""","""","""","""","""","""","""","""","2021-08-17 18:04:13",96.51.153.237,"Mozilla/5.0 (Macintosh; Intel Mac OS X 10_14_4) AppleWebKit/537.36 (KHTML, like Gecko) Chrome/90.0.4430.212 Safari/537.36",Macintosh,Chrome,90.0.4430.212,"OS X",10_14_4,5f461dd6c139dd6b46c7596cbd57cd79
228,1,"""","""","""","""","""",sampler,168,226991,0.0-6.0-162.0,"""","""","""","""","""","""","""","""","""","""","""","""","2021-08-17 18:04:13",96.51.153.237,"Mozilla/5.0 (Macintosh; Intel Mac OS X 10_14_4) AppleWebKit/537.36 (KHTML, like Gecko) Chrome/90.0.4430.212 Safari/537.36",Macintosh,Chrome,90.0.4430.212,"OS X",10_14_4,5f461dd6c139dd6b46c7596cbd57cd79
228,1,"""","""","""","""","""",sampler,169,226992,0.0-6.0-163.0,"""","""","""","""","""","""","""","""","""","""","""","""","2021-08-17 18:04:13",96.51.153.237,"Mozilla/5.0 (Macintosh; Intel Mac OS X 10_14_4) AppleWebKit/537.36 (KHTML, like Gecko) Chrome/90.0.4430.212 Safari/537.36",Macintosh,Chrome,90.0.4430.212,"OS X",10_14_4,5f461dd6c139dd6b46c7596cbd57cd79
228,1,"""","""","""","""","""",sampler,170,226992,0.0-6.0-164.0,"""","""","""","""","""","""","""","""","""","""","""","""","2021-08-17 18:04:13",96.51.153.237,"Mozilla/5.0 (Macintosh; Intel Mac OS X 10_14_4) AppleWebKit/537.36 (KHTML, like Gecko) Chrome/90.0.4430.212 Safari/537.36",Macintosh,Chrome,90.0.4430.212,"OS X",10_14_4,5f461dd6c139dd6b46c7596cbd57cd79
228,1,"""","""","""","""","""",sampler,171,226992,0.0-6.0-165.0,"""","""","""","""","""","""","""","""","""","""","""","""","2021-08-17 18:04:13",96.51.153.237,"Mozilla/5.0 (Macintosh; Intel Mac OS X 10_14_4) AppleWebKit/537.36 (KHTML, like Gecko) Chrome/90.0.4430.212 Safari/537.36",Macintosh,Chrome,90.0.4430.212,"OS X",10_14_4,5f461dd6c139dd6b46c7596cbd57cd79
228,1,"""","""","""","""","""",sampler,172,226992,0.0-6.0-166.0,"""","""","""","""","""","""","""","""","""","""","""","""","2021-08-17 18:04:13",96.51.153.237,"Mozilla/5.0 (Macintosh; Intel Mac OS X 10_14_4) AppleWebKit/537.36 (KHTML, like Gecko) Chrome/90.0.4430.212 Safari/537.36",Macintosh,Chrome,90.0.4430.212,"OS X",10_14_4,5f461dd6c139dd6b46c7596cbd57cd79
228,1,"""","""","""","""","""",sampler,173,226992,0.0-6.0-167.0,"""","""","""","""","""","""","""","""","""","""","""","""","2021-08-17 18:04:13",96.51.153.237,"Mozilla/5.0 (Macintosh; Intel Mac OS X 10_14_4) AppleWebKit/537.36 (KHTML, like Gecko) Chrome/90.0.4430.212 Safari/537.36",Macintosh,Chrome,90.0.4430.212,"OS X",10_14_4,5f461dd6c139dd6b46c7596cbd57cd79
228,1,"""","""","""","""","""",sampler,174,226992,0.0-6.0-168.0,"""","""","""","""","""","""","""","""","""","""","""","""","2021-08-17 18:04:13",96.51.153.237,"Mozilla/5.0 (Macintosh; Intel Mac OS X 10_14_4) AppleWebKit/537.36 (KHTML, like Gecko) Chrome/90.0.4430.212 Safari/537.36",Macintosh,Chrome,90.0.4430.212,"OS X",10_14_4,5f461dd6c139dd6b46c7596cbd57cd79
228,1,"""","""","""","""","""",sampler,175,226992,0.0-6.0-169.0,"""","""","""","""","""","""","""","""","""","""","""","""","2021-08-17 18:04:13",96.51.153.237,"Mozilla/5.0 (Macintosh; Intel Mac OS X 10_14_4) AppleWebKit/537.36 (KHTML, like Gecko) Chrome/90.0.4430.212 Safari/537.36",Macintosh,Chrome,90.0.4430.212,"OS X",10_14_4,5f461dd6c139dd6b46c7596cbd57cd79
228,1,"""","""","""","""","""",sampler,176,226992,0.0-6.0-170.0,"""","""","""","""","""","""","""","""","""","""","""","""","2021-08-17 18:04:13",96.51.153.237,"Mozilla/5.0 (Macintosh; Intel Mac OS X 10_14_4) AppleWebKit/537.36 (KHTML, like Gecko) Chrome/90.0.4430.212 Safari/537.36",Macintosh,Chrome,90.0.4430.212,"OS X",10_14_4,5f461dd6c139dd6b46c7596cbd57cd79
228,1,"""","""","""","""","""",sampler,177,226993,0.0-6.0-171.0,"""","""","""","""","""","""","""","""","""","""","""","""","2021-08-17 18:04:13",96.51.153.237,"Mozilla/5.0 (Macintosh; Intel Mac OS X 10_14_4) AppleWebKit/537.36 (KHTML, like Gecko) Chrome/90.0.4430.212 Safari/537.36",Macintosh,Chrome,90.0.4430.212,"OS X",10_14_4,5f461dd6c139dd6b46c7596cbd57cd79
228,1,"""","""","""","""","""",sampler,178,226993,0.0-6.0-172.0,"""","""","""","""","""","""","""","""","""","""","""","""","2021-08-17 18:04:13",96.51.153.237,"Mozilla/5.0 (Macintosh; Intel Mac OS X 10_14_4) AppleWebKit/537.36 (KHTML, like Gecko) Chrome/90.0.4430.212 Safari/537.36",Macintosh,Chrome,90.0.4430.212,"OS X",10_14_4,5f461dd6c139dd6b46c7596cbd57cd79
228,1,"""","""","""","""","""",sampler,179,226993,0.0-6.0-173.0,"""","""","""","""","""","""","""","""","""","""","""","""","2021-08-17 18:04:13",96.51.153.237,"Mozilla/5.0 (Macintosh; Intel Mac OS X 10_14_4) AppleWebKit/537.36 (KHTML, like Gecko) Chrome/90.0.4430.212 Safari/537.36",Macintosh,Chrome,90.0.4430.212,"OS X",10_14_4,5f461dd6c139dd6b46c7596cbd57cd79
228,1,"""","""","""","""","""",sampler,180,226993,0.0-6.0-174.0,"""","""","""","""","""","""","""","""","""","""","""","""","2021-08-17 18:04:13",96.51.153.237,"Mozilla/5.0 (Macintosh; Intel Mac OS X 10_14_4) AppleWebKit/537.36 (KHTML, like Gecko) Chrome/90.0.4430.212 Safari/537.36",Macintosh,Chrome,90.0.4430.212,"OS X",10_14_4,5f461dd6c139dd6b46c7596cbd57cd79
228,1,"""","""","""","""","""",sampler,181,226993,0.0-6.0-175.0,"""","""","""","""","""","""","""","""","""","""","""","""","2021-08-17 18:04:13",96.51.153.237,"Mozilla/5.0 (Macintosh; Intel Mac OS X 10_14_4) AppleWebKit/537.36 (KHTML, like Gecko) Chrome/90.0.4430.212 Safari/537.36",Macintosh,Chrome,90.0.4430.212,"OS X",10_14_4,5f461dd6c139dd6b46c7596cbd57cd79
228,1,"""","""","""","""","""",sampler,182,226993,0.0-6.0-176.0,"""","""","""","""","""","""","""","""","""","""","""","""","2021-08-17 18:04:13",96.51.153.237,"Mozilla/5.0 (Macintosh; Intel Mac OS X 10_14_4) AppleWebKit/537.36 (KHTML, like Gecko) Chrome/90.0.4430.212 Safari/537.36",Macintosh,Chrome,90.0.4430.212,"OS X",10_14_4,5f461dd6c139dd6b46c7596cbd57cd79
228,1,"""","""","""","""","""",sampler,183,226993,0.0-6.0-177.0,"""","""","""","""","""","""","""","""","""","""","""","""","2021-08-17 18:04:13",96.51.153.237,"Mozilla/5.0 (Macintosh; Intel Mac OS X 10_14_4) AppleWebKit/537.36 (KHTML, like Gecko) Chrome/90.0.4430.212 Safari/537.36",Macintosh,Chrome,90.0.4430.212,"OS X",10_14_4,5f461dd6c139dd6b46c7596cbd57cd79
228,1,"""","""","""","""","""",sampler,184,226993,0.0-6.0-178.0,"""","""","""","""","""","""","""","""","""","""","""","""","2021-08-17 18:04:13",96.51.153.237,"Mozilla/5.0 (Macintosh; Intel Mac OS X 10_14_4) AppleWebKit/537.36 (KHTML, like Gecko) Chrome/90.0.4430.212 Safari/537.36",Macintosh,Chrome,90.0.4430.212,"OS X",10_14_4,5f461dd6c139dd6b46c7596cbd57cd79
228,1,"""","""","""","""","""",sampler,185,226993,0.0-6.0-179.0,"""","""","""","""","""","""","""","""","""","""","""","""","2021-08-17 18:04:13",96.51.153.237,"Mozilla/5.0 (Macintosh; Intel Mac OS X 10_14_4) AppleWebKit/537.36 (KHTML, like Gecko) Chrome/90.0.4430.212 Safari/537.36",Macintosh,Chrome,90.0.4430.212,"OS X",10_14_4,5f461dd6c139dd6b46c7596cbd57cd79
228,1,"""","""","""","""","""",sampler,186,226993,0.0-6.0-180.0,"""","""","""","""","""","""","""","""","""","""","""","""","2021-08-17 18:04:13",96.51.153.237,"Mozilla/5.0 (Macintosh; Intel Mac OS X 10_14_4) AppleWebKit/537.36 (KHTML, like Gecko) Chrome/90.0.4430.212 Safari/537.36",Macintosh,Chrome,90.0.4430.212,"OS X",10_14_4,5f461dd6c139dd6b46c7596cbd57cd79
228,1,"""","""","""","""","""",sampler,187,226994,0.0-6.0-181.0,"""","""","""","""","""","""","""","""","""","""","""","""","2021-08-17 18:04:13",96.51.153.237,"Mozilla/5.0 (Macintosh; Intel Mac OS X 10_14_4) AppleWebKit/537.36 (KHTML, like Gecko) Chrome/90.0.4430.212 Safari/537.36",Macintosh,Chrome,90.0.4430.212,"OS X",10_14_4,5f461dd6c139dd6b46c7596cbd57cd79
228,1,"""","""","""","""","""",sampler,188,226994,0.0-6.0-182.0,"""","""","""","""","""","""","""","""","""","""","""","""","2021-08-17 18:04:13",96.51.153.237,"Mozilla/5.0 (Macintosh; Intel Mac OS X 10_14_4) AppleWebKit/537.36 (KHTML, like Gecko) Chrome/90.0.4430.212 Safari/537.36",Macintosh,Chrome,90.0.4430.212,"OS X",10_14_4,5f461dd6c139dd6b46c7596cbd57cd79
228,1,"""","""","""","""","""",sampler,189,226994,0.0-6.0-183.0,"""","""","""","""","""","""","""","""","""","""","""","""","2021-08-17 18:04:13",96.51.153.237,"Mozilla/5.0 (Macintosh; Intel Mac OS X 10_14_4) AppleWebKit/537.36 (KHTML, like Gecko) Chrome/90.0.4430.212 Safari/537.36",Macintosh,Chrome,90.0.4430.212,"OS X",10_14_4,5f461dd6c139dd6b46c7596cbd57cd79
228,1,"""","""","""","""","""",sampler,190,226994,0.0-6.0-184.0,"""","""","""","""","""","""","""","""","""","""","""","""","2021-08-17 18:04:13",96.51.153.237,"Mozilla/5.0 (Macintosh; Intel Mac OS X 10_14_4) AppleWebKit/537.36 (KHTML, like Gecko) Chrome/90.0.4430.212 Safari/537.36",Macintosh,Chrome,90.0.4430.212,"OS X",10_14_4,5f461dd6c139dd6b46c7596cbd57cd79
228,1,"""","""","""","""","""",sampler,191,226994,0.0-6.0-185.0,"""","""","""","""","""","""","""","""","""","""","""","""","2021-08-17 18:04:13",96.51.153.237,"Mozilla/5.0 (Macintosh; Intel Mac OS X 10_14_4) AppleWebKit/537.36 (KHTML, like Gecko) Chrome/90.0.4430.212 Safari/537.36",Macintosh,Chrome,90.0.4430.212,"OS X",10_14_4,5f461dd6c139dd6b46c7596cbd57cd79
228,1,"""","""","""","""","""",sampler,192,226994,0.0-6.0-186.0,"""","""","""","""","""","""","""","""","""","""","""","""","2021-08-17 18:04:13",96.51.153.237,"Mozilla/5.0 (Macintosh; Intel Mac OS X 10_14_4) AppleWebKit/537.36 (KHTML, like Gecko) Chrome/90.0.4430.212 Safari/537.36",Macintosh,Chrome,90.0.4430.212,"OS X",10_14_4,5f461dd6c139dd6b46c7596cbd57cd79
228,1,"""","""","""","""","""",sampler,193,226994,0.0-6.0-187.0,"""","""","""","""","""","""","""","""","""","""","""","""","2021-08-17 18:04:13",96.51.153.237,"Mozilla/5.0 (Macintosh; Intel Mac OS X 10_14_4) AppleWebKit/537.36 (KHTML, like Gecko) Chrome/90.0.4430.212 Safari/537.36",Macintosh,Chrome,90.0.4430.212,"OS X",10_14_4,5f461dd6c139dd6b46c7596cbd57cd79
228,1,"""","""","""","""","""",sampler,194,226994,0.0-6.0-188.0,"""","""","""","""","""","""","""","""","""","""","""","""","2021-08-17 18:04:13",96.51.153.237,"Mozilla/5.0 (Macintosh; Intel Mac OS X 10_14_4) AppleWebKit/537.36 (KHTML, like Gecko) Chrome/90.0.4430.212 Safari/537.36",Macintosh,Chrome,90.0.4430.212,"OS X",10_14_4,5f461dd6c139dd6b46c7596cbd57cd79
228,1,"""","""","""","""","""",sampler,195,226994,0.0-6.0-189.0,"""","""","""","""","""","""","""","""","""","""","""","""","2021-08-17 18:04:13",96.51.153.237,"Mozilla/5.0 (Macintosh; Intel Mac OS X 10_14_4) AppleWebKit/537.36 (KHTML, like Gecko) Chrome/90.0.4430.212 Safari/537.36",Macintosh,Chrome,90.0.4430.212,"OS X",10_14_4,5f461dd6c139dd6b46c7596cbd57cd79
228,1,"""","""","""","""","""",sampler,196,226994,0.0-6.0-190.0,"""","""","""","""","""","""","""","""","""","""","""","""","2021-08-17 18:04:13",96.51.153.237,"Mozilla/5.0 (Macintosh; Intel Mac OS X 10_14_4) AppleWebKit/537.36 (KHTML, like Gecko) Chrome/90.0.4430.212 Safari/537.36",Macintosh,Chrome,90.0.4430.212,"OS X",10_14_4,5f461dd6c139dd6b46c7596cbd57cd79
228,1,"""","""","""","""","""",sampler,197,226995,0.0-6.0-191.0,"""","""","""","""","""","""","""","""","""","""","""","""","2021-08-17 18:04:13",96.51.153.237,"Mozilla/5.0 (Macintosh; Intel Mac OS X 10_14_4) AppleWebKit/537.36 (KHTML, like Gecko) Chrome/90.0.4430.212 Safari/537.36",Macintosh,Chrome,90.0.4430.212,"OS X",10_14_4,5f461dd6c139dd6b46c7596cbd57cd79
228,1,"""","""","""","""","""",sampler,198,226995,0.0-6.0-192.0,"""","""","""","""","""","""","""","""","""","""","""","""","2021-08-17 18:04:13",96.51.153.237,"Mozilla/5.0 (Macintosh; Intel Mac OS X 10_14_4) AppleWebKit/537.36 (KHTML, like Gecko) Chrome/90.0.4430.212 Safari/537.36",Macintosh,Chrome,90.0.4430.212,"OS X",10_14_4,5f461dd6c139dd6b46c7596cbd57cd79
228,1,"""","""","""","""","""",sampler,199,226995,0.0-6.0-193.0,"""","""","""","""","""","""","""","""","""","""","""","""","2021-08-17 18:04:13",96.51.153.237,"Mozilla/5.0 (Macintosh; Intel Mac OS X 10_14_4) AppleWebKit/537.36 (KHTML, like Gecko) Chrome/90.0.4430.212 Safari/537.36",Macintosh,Chrome,90.0.4430.212,"OS X",10_14_4,5f461dd6c139dd6b46c7596cbd57cd79
228,1,"""","""","""","""","""",sampler,200,226996,0.0-6.0-194.0,"""","""","""","""","""","""","""","""","""","""","""","""","2021-08-17 18:04:13",96.51.153.237,"Mozilla/5.0 (Macintosh; Intel Mac OS X 10_14_4) AppleWebKit/537.36 (KHTML, like Gecko) Chrome/90.0.4430.212 Safari/537.36",Macintosh,Chrome,90.0.4430.212,"OS X",10_14_4,5f461dd6c139dd6b46c7596cbd57cd79
228,1,"""","""","""","""","""",sampler,201,226996,0.0-6.0-195.0,"""","""","""","""","""","""","""","""","""","""","""","""","2021-08-17 18:04:13",96.51.153.237,"Mozilla/5.0 (Macintosh; Intel Mac OS X 10_14_4) AppleWebKit/537.36 (KHTML, like Gecko) Chrome/90.0.4430.212 Safari/537.36",Macintosh,Chrome,90.0.4430.212,"OS X",10_14_4,5f461dd6c139dd6b46c7596cbd57cd79
228,1,"""","""","""","""","""",sampler,202,226996,0.0-6.0-196.0,"""","""","""","""","""","""","""","""","""","""","""","""","2021-08-17 18:04:13",96.51.153.237,"Mozilla/5.0 (Macintosh; Intel Mac OS X 10_14_4) AppleWebKit/537.36 (KHTML, like Gecko) Chrome/90.0.4430.212 Safari/537.36",Macintosh,Chrome,90.0.4430.212,"OS X",10_14_4,5f461dd6c139dd6b46c7596cbd57cd79
228,1,"""","""","""","""","""",sampler,203,226996,0.0-6.0-197.0,"""","""","""","""","""","""","""","""","""","""","""","""","2021-08-17 18:04:13",96.51.153.237,"Mozilla/5.0 (Macintosh; Intel Mac OS X 10_14_4) AppleWebKit/537.36 (KHTML, like Gecko) Chrome/90.0.4430.212 Safari/537.36",Macintosh,Chrome,90.0.4430.212,"OS X",10_14_4,5f461dd6c139dd6b46c7596cbd57cd79
228,1,"""","""","""","""","""",sampler,204,226996,0.0-6.0-198.0,"""","""","""","""","""","""","""","""","""","""","""","""","2021-08-17 18:04:13",96.51.153.237,"Mozilla/5.0 (Macintosh; Intel Mac OS X 10_14_4) AppleWebKit/537.36 (KHTML, like Gecko) Chrome/90.0.4430.212 Safari/537.36",Macintosh,Chrome,90.0.4430.212,"OS X",10_14_4,5f461dd6c139dd6b46c7596cbd57cd79
228,1,"""","""","""","""","""",sampler,205,226996,0.0-6.0-199.0,"""","""","""","""","""","""","""","""","""","""","""","""","2021-08-17 18:04:13",96.51.153.237,"Mozilla/5.0 (Macintosh; Intel Mac OS X 10_14_4) AppleWebKit/537.36 (KHTML, like Gecko) Chrome/90.0.4430.212 Safari/537.36",Macintosh,Chrome,90.0.4430.212,"OS X",10_14_4,5f461dd6c139dd6b46c7596cbd57cd79
228,1,"""","""","""","""","""",sampler,206,226997,0.0-6.0-200.0,"""","""","""","""","""","""","""","""","""","""","""","""","2021-08-17 18:04:13",96.51.153.237,"Mozilla/5.0 (Macintosh; Intel Mac OS X 10_14_4) AppleWebKit/537.36 (KHTML, like Gecko) Chrome/90.0.4430.212 Safari/537.36",Macintosh,Chrome,90.0.4430.212,"OS X",10_14_4,5f461dd6c139dd6b46c7596cbd57cd79
228,1,"""","""","""","""","""",sampler,207,226997,0.0-6.0-201.0,"""","""","""","""","""","""","""","""","""","""","""","""","2021-08-17 18:04:13",96.51.153.237,"Mozilla/5.0 (Macintosh; Intel Mac OS X 10_14_4) AppleWebKit/537.36 (KHTML, like Gecko) Chrome/90.0.4430.212 Safari/537.36",Macintosh,Chrome,90.0.4430.212,"OS X",10_14_4,5f461dd6c139dd6b46c7596cbd57cd79
228,1,"""","""","""","""","""",sampler,208,226997,0.0-6.0-202.0,"""","""","""","""","""","""","""","""","""","""","""","""","2021-08-17 18:04:13",96.51.153.237,"Mozilla/5.0 (Macintosh; Intel Mac OS X 10_14_4) AppleWebKit/537.36 (KHTML, like Gecko) Chrome/90.0.4430.212 Safari/537.36",Macintosh,Chrome,90.0.4430.212,"OS X",10_14_4,5f461dd6c139dd6b46c7596cbd57cd79
228,1,"""","""","""","""","""",sampler,209,226997,0.0-6.0-203.0,"""","""","""","""","""","""","""","""","""","""","""","""","2021-08-17 18:04:13",96.51.153.237,"Mozilla/5.0 (Macintosh; Intel Mac OS X 10_14_4) AppleWebKit/537.36 (KHTML, like Gecko) Chrome/90.0.4430.212 Safari/537.36",Macintosh,Chrome,90.0.4430.212,"OS X",10_14_4,5f461dd6c139dd6b46c7596cbd57cd79
228,1,"""","""","""","""","""",sampler,210,226997,0.0-6.0-204.0,"""","""","""","""","""","""","""","""","""","""","""","""","2021-08-17 18:04:13",96.51.153.237,"Mozilla/5.0 (Macintosh; Intel Mac OS X 10_14_4) AppleWebKit/537.36 (KHTML, like Gecko) Chrome/90.0.4430.212 Safari/537.36",Macintosh,Chrome,90.0.4430.212,"OS X",10_14_4,5f461dd6c139dd6b46c7596cbd57cd79
228,1,"""","""","""","""","""",sampler,211,226997,0.0-6.0-205.0,"""","""","""","""","""","""","""","""","""","""","""","""","2021-08-17 18:04:13",96.51.153.237,"Mozilla/5.0 (Macintosh; Intel Mac OS X 10_14_4) AppleWebKit/537.36 (KHTML, like Gecko) Chrome/90.0.4430.212 Safari/537.36",Macintosh,Chrome,90.0.4430.212,"OS X",10_14_4,5f461dd6c139dd6b46c7596cbd57cd79
228,1,"""","""","""","""","""",sampler,212,226997,0.0-6.0-206.0,"""","""","""","""","""","""","""","""","""","""","""","""","2021-08-17 18:04:13",96.51.153.237,"Mozilla/5.0 (Macintosh; Intel Mac OS X 10_14_4) AppleWebKit/537.36 (KHTML, like Gecko) Chrome/90.0.4430.212 Safari/537.36",Macintosh,Chrome,90.0.4430.212,"OS X",10_14_4,5f461dd6c139dd6b46c7596cbd57cd79
228,1,"""","""","""","""","""",sampler,213,226997,0.0-6.0-207.0,"""","""","""","""","""","""","""","""","""","""","""","""","2021-08-17 18:04:13",96.51.153.237,"Mozilla/5.0 (Macintosh; Intel Mac OS X 10_14_4) AppleWebKit/537.36 (KHTML, like Gecko) Chrome/90.0.4430.212 Safari/537.36",Macintosh,Chrome,90.0.4430.212,"OS X",10_14_4,5f461dd6c139dd6b46c7596cbd57cd79
228,1,"""","""","""","""","""",sampler,214,226997,0.0-6.0-208.0,"""","""","""","""","""","""","""","""","""","""","""","""","2021-08-17 18:04:13",96.51.153.237,"Mozilla/5.0 (Macintosh; Intel Mac OS X 10_14_4) AppleWebKit/537.36 (KHTML, like Gecko) Chrome/90.0.4430.212 Safari/537.36",Macintosh,Chrome,90.0.4430.212,"OS X",10_14_4,5f461dd6c139dd6b46c7596cbd57cd79
228,1,"""","""","""","""","""",sampler,215,226997,0.0-6.0-209.0,"""","""","""","""","""","""","""","""","""","""","""","""","2021-08-17 18:04:13",96.51.153.237,"Mozilla/5.0 (Macintosh; Intel Mac OS X 10_14_4) AppleWebKit/537.36 (KHTML, like Gecko) Chrome/90.0.4430.212 Safari/537.36",Macintosh,Chrome,90.0.4430.212,"OS X",10_14_4,5f461dd6c139dd6b46c7596cbd57cd79
228,1,"""","""","""","""","""",sampler,216,226998,0.0-6.0-210.0,"""","""","""","""","""","""","""","""","""","""","""","""","2021-08-17 18:04:13",96.51.153.237,"Mozilla/5.0 (Macintosh; Intel Mac OS X 10_14_4) AppleWebKit/537.36 (KHTML, like Gecko) Chrome/90.0.4430.212 Safari/537.36",Macintosh,Chrome,90.0.4430.212,"OS X",10_14_4,5f461dd6c139dd6b46c7596cbd57cd79
228,1,"""","""","""","""","""",sampler,217,226998,0.0-6.0-211.0,"""","""","""","""","""","""","""","""","""","""","""","""","2021-08-17 18:04:13",96.51.153.237,"Mozilla/5.0 (Macintosh; Intel Mac OS X 10_14_4) AppleWebKit/537.36 (KHTML, like Gecko) Chrome/90.0.4430.212 Safari/537.36",Macintosh,Chrome,90.0.4430.212,"OS X",10_14_4,5f461dd6c139dd6b46c7596cbd57cd79
228,1,"""","""","""","""","""",sampler,218,226998,0.0-6.0-212.0,"""","""","""","""","""","""","""","""","""","""","""","""","2021-08-17 18:04:13",96.51.153.237,"Mozilla/5.0 (Macintosh; Intel Mac OS X 10_14_4) AppleWebKit/537.36 (KHTML, like Gecko) Chrome/90.0.4430.212 Safari/537.36",Macintosh,Chrome,90.0.4430.212,"OS X",10_14_4,5f461dd6c139dd6b46c7596cbd57cd79
228,1,"""","""","""","""","""",sampler,219,226998,0.0-6.0-213.0,"""","""","""","""","""","""","""","""","""","""","""","""","2021-08-17 18:04:13",96.51.153.237,"Mozilla/5.0 (Macintosh; Intel Mac OS X 10_14_4) AppleWebKit/537.36 (KHTML, like Gecko) Chrome/90.0.4430.212 Safari/537.36",Macintosh,Chrome,90.0.4430.212,"OS X",10_14_4,5f461dd6c139dd6b46c7596cbd57cd79
228,1,"""","""","""","""","""",sampler,220,226998,0.0-6.0-214.0,"""","""","""","""","""","""","""","""","""","""","""","""","2021-08-17 18:04:13",96.51.153.237,"Mozilla/5.0 (Macintosh; Intel Mac OS X 10_14_4) AppleWebKit/537.36 (KHTML, like Gecko) Chrome/90.0.4430.212 Safari/537.36",Macintosh,Chrome,90.0.4430.212,"OS X",10_14_4,5f461dd6c139dd6b46c7596cbd57cd79
228,1,"""","""","""","""","""",sampler,221,226998,0.0-6.0-215.0,"""","""","""","""","""","""","""","""","""","""","""","""","2021-08-17 18:04:13",96.51.153.237,"Mozilla/5.0 (Macintosh; Intel Mac OS X 10_14_4) AppleWebKit/537.36 (KHTML, like Gecko) Chrome/90.0.4430.212 Safari/537.36",Macintosh,Chrome,90.0.4430.212,"OS X",10_14_4,5f461dd6c139dd6b46c7596cbd57cd79
228,1,"""","""","""","""","""",sampler,222,226998,0.0-6.0-216.0,"""","""","""","""","""","""","""","""","""","""","""","""","2021-08-17 18:04:13",96.51.153.237,"Mozilla/5.0 (Macintosh; Intel Mac OS X 10_14_4) AppleWebKit/537.36 (KHTML, like Gecko) Chrome/90.0.4430.212 Safari/537.36",Macintosh,Chrome,90.0.4430.212,"OS X",10_14_4,5f461dd6c139dd6b46c7596cbd57cd79
228,1,"""","""","""","""","""",sampler,223,226998,0.0-6.0-217.0,"""","""","""","""","""","""","""","""","""","""","""","""","2021-08-17 18:04:13",96.51.153.237,"Mozilla/5.0 (Macintosh; Intel Mac OS X 10_14_4) AppleWebKit/537.36 (KHTML, like Gecko) Chrome/90.0.4430.212 Safari/537.36",Macintosh,Chrome,90.0.4430.212,"OS X",10_14_4,5f461dd6c139dd6b46c7596cbd57cd79
228,1,"""","""","""","""","""",sampler,224,226998,0.0-6.0-218.0,"""","""","""","""","""","""","""","""","""","""","""","""","2021-08-17 18:04:13",96.51.153.237,"Mozilla/5.0 (Macintosh; Intel Mac OS X 10_14_4) AppleWebKit/537.36 (KHTML, like Gecko) Chrome/90.0.4430.212 Safari/537.36",Macintosh,Chrome,90.0.4430.212,"OS X",10_14_4,5f461dd6c139dd6b46c7596cbd57cd79
228,1,"""","""","""","""","""",sampler,225,226998,0.0-6.0-219.0,"""","""","""","""","""","""","""","""","""","""","""","""","2021-08-17 18:04:13",96.51.153.237,"Mozilla/5.0 (Macintosh; Intel Mac OS X 10_14_4) AppleWebKit/537.36 (KHTML, like Gecko) Chrome/90.0.4430.212 Safari/537.36",Macintosh,Chrome,90.0.4430.212,"OS X",10_14_4,5f461dd6c139dd6b46c7596cbd57cd79
228,1,"""","""","""","""","""",sampler,226,226999,0.0-6.0-220.0,"""","""","""","""","""","""","""","""","""","""","""","""","2021-08-17 18:04:13",96.51.153.237,"Mozilla/5.0 (Macintosh; Intel Mac OS X 10_14_4) AppleWebKit/537.36 (KHTML, like Gecko) Chrome/90.0.4430.212 Safari/537.36",Macintosh,Chrome,90.0.4430.212,"OS X",10_14_4,5f461dd6c139dd6b46c7596cbd57cd79
228,1,"""","""","""","""","""",sampler,227,226999,0.0-6.0-221.0,"""","""","""","""","""","""","""","""","""","""","""","""","2021-08-17 18:04:13",96.51.153.237,"Mozilla/5.0 (Macintosh; Intel Mac OS X 10_14_4) AppleWebKit/537.36 (KHTML, like Gecko) Chrome/90.0.4430.212 Safari/537.36",Macintosh,Chrome,90.0.4430.212,"OS X",10_14_4,5f461dd6c139dd6b46c7596cbd57cd79
228,1,"""","""","""","""","""",sampler,228,226999,0.0-6.0-222.0,"""","""","""","""","""","""","""","""","""","""","""","""","2021-08-17 18:04:13",96.51.153.237,"Mozilla/5.0 (Macintosh; Intel Mac OS X 10_14_4) AppleWebKit/537.36 (KHTML, like Gecko) Chrome/90.0.4430.212 Safari/537.36",Macintosh,Chrome,90.0.4430.212,"OS X",10_14_4,5f461dd6c139dd6b46c7596cbd57cd79
228,1,"""","""","""","""","""",sampler,229,226999,0.0-6.0-223.0,"""","""","""","""","""","""","""","""","""","""","""","""","2021-08-17 18:04:13",96.51.153.237,"Mozilla/5.0 (Macintosh; Intel Mac OS X 10_14_4) AppleWebKit/537.36 (KHTML, like Gecko) Chrome/90.0.4430.212 Safari/537.36",Macintosh,Chrome,90.0.4430.212,"OS X",10_14_4,5f461dd6c139dd6b46c7596cbd57cd79
228,1,"""","""","""","""","""",sampler,230,226999,0.0-6.0-224.0,"""","""","""","""","""","""","""","""","""","""","""","""","2021-08-17 18:04:13",96.51.153.237,"Mozilla/5.0 (Macintosh; Intel Mac OS X 10_14_4) AppleWebKit/537.36 (KHTML, like Gecko) Chrome/90.0.4430.212 Safari/537.36",Macintosh,Chrome,90.0.4430.212,"OS X",10_14_4,5f461dd6c139dd6b46c7596cbd57cd79
228,1,"""","""","""","""","""",sampler,231,226999,0.0-6.0-225.0,"""","""","""","""","""","""","""","""","""","""","""","""","2021-08-17 18:04:13",96.51.153.237,"Mozilla/5.0 (Macintosh; Intel Mac OS X 10_14_4) AppleWebKit/537.36 (KHTML, like Gecko) Chrome/90.0.4430.212 Safari/537.36",Macintosh,Chrome,90.0.4430.212,"OS X",10_14_4,5f461dd6c139dd6b46c7596cbd57cd79
228,1,"""","""","""","""","""",sampler,232,226999,0.0-6.0-226.0,"""","""","""","""","""","""","""","""","""","""","""","""","2021-08-17 18:04:13",96.51.153.237,"Mozilla/5.0 (Macintosh; Intel Mac OS X 10_14_4) AppleWebKit/537.36 (KHTML, like Gecko) Chrome/90.0.4430.212 Safari/537.36",Macintosh,Chrome,90.0.4430.212,"OS X",10_14_4,5f461dd6c139dd6b46c7596cbd57cd79
228,1,"""","""","""","""","""",sampler,233,226999,0.0-6.0-227.0,"""","""","""","""","""","""","""","""","""","""","""","""","2021-08-17 18:04:13",96.51.153.237,"Mozilla/5.0 (Macintosh; Intel Mac OS X 10_14_4) AppleWebKit/537.36 (KHTML, like Gecko) Chrome/90.0.4430.212 Safari/537.36",Macintosh,Chrome,90.0.4430.212,"OS X",10_14_4,5f461dd6c139dd6b46c7596cbd57cd79
228,1,"""","""","""","""","""",sampler,234,226999,0.0-6.0-228.0,"""","""","""","""","""","""","""","""","""","""","""","""","2021-08-17 18:04:13",96.51.153.237,"Mozilla/5.0 (Macintosh; Intel Mac OS X 10_14_4) AppleWebKit/537.36 (KHTML, like Gecko) Chrome/90.0.4430.212 Safari/537.36",Macintosh,Chrome,90.0.4430.212,"OS X",10_14_4,5f461dd6c139dd6b46c7596cbd57cd79
228,1,"""","""","""","""","""",sampler,235,226999,0.0-6.0-229.0,"""","""","""","""","""","""","""","""","""","""","""","""","2021-08-17 18:04:13",96.51.153.237,"Mozilla/5.0 (Macintosh; Intel Mac OS X 10_14_4) AppleWebKit/537.36 (KHTML, like Gecko) Chrome/90.0.4430.212 Safari/537.36",Macintosh,Chrome,90.0.4430.212,"OS X",10_14_4,5f461dd6c139dd6b46c7596cbd57cd79
228,1,"""","""","""","""","""",sampler,236,227000,0.0-6.0-230.0,"""","""","""","""","""","""","""","""","""","""","""","""","2021-08-17 18:04:13",96.51.153.237,"Mozilla/5.0 (Macintosh; Intel Mac OS X 10_14_4) AppleWebKit/537.36 (KHTML, like Gecko) Chrome/90.0.4430.212 Safari/537.36",Macintosh,Chrome,90.0.4430.212,"OS X",10_14_4,5f461dd6c139dd6b46c7596cbd57cd79
228,1,"""","""","""","""","""",sampler,237,227000,0.0-6.0-231.0,"""","""","""","""","""","""","""","""","""","""","""","""","2021-08-17 18:04:13",96.51.153.237,"Mozilla/5.0 (Macintosh; Intel Mac OS X 10_14_4) AppleWebKit/537.36 (KHTML, like Gecko) Chrome/90.0.4430.212 Safari/537.36",Macintosh,Chrome,90.0.4430.212,"OS X",10_14_4,5f461dd6c139dd6b46c7596cbd57cd79
228,1,"""","""","""","""","""",sampler,238,227000,0.0-6.0-232.0,"""","""","""","""","""","""","""","""","""","""","""","""","2021-08-17 18:04:13",96.51.153.237,"Mozilla/5.0 (Macintosh; Intel Mac OS X 10_14_4) AppleWebKit/537.36 (KHTML, like Gecko) Chrome/90.0.4430.212 Safari/537.36",Macintosh,Chrome,90.0.4430.212,"OS X",10_14_4,5f461dd6c139dd6b46c7596cbd57cd79
228,1,"""","""","""","""","""",sampler,239,227000,0.0-6.0-233.0,"""","""","""","""","""","""","""","""","""","""","""","""","2021-08-17 18:04:13",96.51.153.237,"Mozilla/5.0 (Macintosh; Intel Mac OS X 10_14_4) AppleWebKit/537.36 (KHTML, like Gecko) Chrome/90.0.4430.212 Safari/537.36",Macintosh,Chrome,90.0.4430.212,"OS X",10_14_4,5f461dd6c139dd6b46c7596cbd57cd79
228,1,"""","""","""","""","""",sampler,240,227000,0.0-6.0-234.0,"""","""","""","""","""","""","""","""","""","""","""","""","2021-08-17 18:04:13",96.51.153.237,"Mozilla/5.0 (Macintosh; Intel Mac OS X 10_14_4) AppleWebKit/537.36 (KHTML, like Gecko) Chrome/90.0.4430.212 Safari/537.36",Macintosh,Chrome,90.0.4430.212,"OS X",10_14_4,5f461dd6c139dd6b46c7596cbd57cd79
228,1,"""","""","""","""","""",sampler,241,227000,0.0-6.0-235.0,"""","""","""","""","""","""","""","""","""","""","""","""","2021-08-17 18:04:13",96.51.153.237,"Mozilla/5.0 (Macintosh; Intel Mac OS X 10_14_4) AppleWebKit/537.36 (KHTML, like Gecko) Chrome/90.0.4430.212 Safari/537.36",Macintosh,Chrome,90.0.4430.212,"OS X",10_14_4,5f461dd6c139dd6b46c7596cbd57cd79
228,1,"""","""","""","""","""",sampler,242,227000,0.0-6.0-236.0,"""","""","""","""","""","""","""","""","""","""","""","""","2021-08-17 18:04:13",96.51.153.237,"Mozilla/5.0 (Macintosh; Intel Mac OS X 10_14_4) AppleWebKit/537.36 (KHTML, like Gecko) Chrome/90.0.4430.212 Safari/537.36",Macintosh,Chrome,90.0.4430.212,"OS X",10_14_4,5f461dd6c139dd6b46c7596cbd57cd79
228,1,"""","""","""","""","""",sampler,243,227000,0.0-6.0-237.0,"""","""","""","""","""","""","""","""","""","""","""","""","2021-08-17 18:04:13",96.51.153.237,"Mozilla/5.0 (Macintosh; Intel Mac OS X 10_14_4) AppleWebKit/537.36 (KHTML, like Gecko) Chrome/90.0.4430.212 Safari/537.36",Macintosh,Chrome,90.0.4430.212,"OS X",10_14_4,5f461dd6c139dd6b46c7596cbd57cd79
228,1,"""","""","""","""","""",sampler,244,227001,0.0-6.0-238.0,"""","""","""","""","""","""","""","""","""","""","""","""","2021-08-17 18:04:13",96.51.153.237,"Mozilla/5.0 (Macintosh; Intel Mac OS X 10_14_4) AppleWebKit/537.36 (KHTML, like Gecko) Chrome/90.0.4430.212 Safari/537.36",Macintosh,Chrome,90.0.4430.212,"OS X",10_14_4,5f461dd6c139dd6b46c7596cbd57cd79
228,1,"""","""","""","""","""",sampler,245,227001,0.0-6.0-239.0,"""","""","""","""","""","""","""","""","""","""","""","""","2021-08-17 18:04:13",96.51.153.237,"Mozilla/5.0 (Macintosh; Intel Mac OS X 10_14_4) AppleWebKit/537.36 (KHTML, like Gecko) Chrome/90.0.4430.212 Safari/537.36",Macintosh,Chrome,90.0.4430.212,"OS X",10_14_4,5f461dd6c139dd6b46c7596cbd57cd79
228,1,"""","""","""","""","""",sampler,246,227001,0.0-6.0-240.0,"""","""","""","""","""","""","""","""","""","""","""","""","2021-08-17 18:04:13",96.51.153.237,"Mozilla/5.0 (Macintosh; Intel Mac OS X 10_14_4) AppleWebKit/537.36 (KHTML, like Gecko) Chrome/90.0.4430.212 Safari/537.36",Macintosh,Chrome,90.0.4430.212,"OS X",10_14_4,5f461dd6c139dd6b46c7596cbd57cd79
228,1,"""","""","""","""","""",sampler,247,227001,0.0-6.0-241.0,"""","""","""","""","""","""","""","""","""","""","""","""","2021-08-17 18:04:13",96.51.153.237,"Mozilla/5.0 (Macintosh; Intel Mac OS X 10_14_4) AppleWebKit/537.36 (KHTML, like Gecko) Chrome/90.0.4430.212 Safari/537.36",Macintosh,Chrome,90.0.4430.212,"OS X",10_14_4,5f461dd6c139dd6b46c7596cbd57cd79
228,1,"""","""","""","""","""",sampler,248,227001,0.0-6.0-242.0,"""","""","""","""","""","""","""","""","""","""","""","""","2021-08-17 18:04:13",96.51.153.237,"Mozilla/5.0 (Macintosh; Intel Mac OS X 10_14_4) AppleWebKit/537.36 (KHTML, like Gecko) Chrome/90.0.4430.212 Safari/537.36",Macintosh,Chrome,90.0.4430.212,"OS X",10_14_4,5f461dd6c139dd6b46c7596cbd57cd79
228,1,"""","""","""","""","""",sampler,249,227001,0.0-6.0-243.0,"""","""","""","""","""","""","""","""","""","""","""","""","2021-08-17 18:04:13",96.51.153.237,"Mozilla/5.0 (Macintosh; Intel Mac OS X 10_14_4) AppleWebKit/537.36 (KHTML, like Gecko) Chrome/90.0.4430.212 Safari/537.36",Macintosh,Chrome,90.0.4430.212,"OS X",10_14_4,5f461dd6c139dd6b46c7596cbd57cd79
228,1,"""","""","""","""","""",sampler,250,227001,0.0-6.0-244.0,"""","""","""","""","""","""","""","""","""","""","""","""","2021-08-17 18:04:13",96.51.153.237,"Mozilla/5.0 (Macintosh; Intel Mac OS X 10_14_4) AppleWebKit/537.36 (KHTML, like Gecko) Chrome/90.0.4430.212 Safari/537.36",Macintosh,Chrome,90.0.4430.212,"OS X",10_14_4,5f461dd6c139dd6b46c7596cbd57cd79
228,1,"""","""","""","""","""",sampler,251,227001,0.0-6.0-245.0,"""","""","""","""","""","""","""","""","""","""","""","""","2021-08-17 18:04:13",96.51.153.237,"Mozilla/5.0 (Macintosh; Intel Mac OS X 10_14_4) AppleWebKit/537.36 (KHTML, like Gecko) Chrome/90.0.4430.212 Safari/537.36",Macintosh,Chrome,90.0.4430.212,"OS X",10_14_4,5f461dd6c139dd6b46c7596cbd57cd79
228,1,"""","""","""","""","""",sampler,252,227001,0.0-6.0-246.0,"""","""","""","""","""","""","""","""","""","""","""","""","2021-08-17 18:04:13",96.51.153.237,"Mozilla/5.0 (Macintosh; Intel Mac OS X 10_14_4) AppleWebKit/537.36 (KHTML, like Gecko) Chrome/90.0.4430.212 Safari/537.36",Macintosh,Chrome,90.0.4430.212,"OS X",10_14_4,5f461dd6c139dd6b46c7596cbd57cd79
228,1,"""","""","""","""","""",sampler,253,227001,0.0-6.0-247.0,"""","""","""","""","""","""","""","""","""","""","""","""","2021-08-17 18:04:13",96.51.153.237,"Mozilla/5.0 (Macintosh; Intel Mac OS X 10_14_4) AppleWebKit/537.36 (KHTML, like Gecko) Chrome/90.0.4430.212 Safari/537.36",Macintosh,Chrome,90.0.4430.212,"OS X",10_14_4,5f461dd6c139dd6b46c7596cbd57cd79
228,1,"""","""","""","""","""",sampler,254,227002,0.0-6.0-248.0,"""","""","""","""","""","""","""","""","""","""","""","""","2021-08-17 18:04:13",96.51.153.237,"Mozilla/5.0 (Macintosh; Intel Mac OS X 10_14_4) AppleWebKit/537.36 (KHTML, like Gecko) Chrome/90.0.4430.212 Safari/537.36",Macintosh,Chrome,90.0.4430.212,"OS X",10_14_4,5f461dd6c139dd6b46c7596cbd57cd79
228,1,"""","""","""","""","""",sampler,255,227002,0.0-6.0-249.0,"""","""","""","""","""","""","""","""","""","""","""","""","2021-08-17 18:04:13",96.51.153.237,"Mozilla/5.0 (Macintosh; Intel Mac OS X 10_14_4) AppleWebKit/537.36 (KHTML, like Gecko) Chrome/90.0.4430.212 Safari/537.36",Macintosh,Chrome,90.0.4430.212,"OS X",10_14_4,5f461dd6c139dd6b46c7596cbd57cd79
228,1,"""","""","""","""","""",sampler,256,227002,0.0-6.0-250.0,"""","""","""","""","""","""","""","""","""","""","""","""","2021-08-17 18:04:13",96.51.153.237,"Mozilla/5.0 (Macintosh; Intel Mac OS X 10_14_4) AppleWebKit/537.36 (KHTML, like Gecko) Chrome/90.0.4430.212 Safari/537.36",Macintosh,Chrome,90.0.4430.212,"OS X",10_14_4,5f461dd6c139dd6b46c7596cbd57cd79
228,1,"""","""","""","""","""",sampler,257,227002,0.0-6.0-251.0,"""","""","""","""","""","""","""","""","""","""","""","""","2021-08-17 18:04:13",96.51.153.237,"Mozilla/5.0 (Macintosh; Intel Mac OS X 10_14_4) AppleWebKit/537.36 (KHTML, like Gecko) Chrome/90.0.4430.212 Safari/537.36",Macintosh,Chrome,90.0.4430.212,"OS X",10_14_4,5f461dd6c139dd6b46c7596cbd57cd79
228,1,"""","""","""","""","""",sampler,258,227002,0.0-6.0-252.0,"""","""","""","""","""","""","""","""","""","""","""","""","2021-08-17 18:04:13",96.51.153.237,"Mozilla/5.0 (Macintosh; Intel Mac OS X 10_14_4) AppleWebKit/537.36 (KHTML, like Gecko) Chrome/90.0.4430.212 Safari/537.36",Macintosh,Chrome,90.0.4430.212,"OS X",10_14_4,5f461dd6c139dd6b46c7596cbd57cd79
228,1,"""","""","""","""","""",sampler,259,227002,0.0-6.0-253.0,"""","""","""","""","""","""","""","""","""","""","""","""","2021-08-17 18:04:13",96.51.153.237,"Mozilla/5.0 (Macintosh; Intel Mac OS X 10_14_4) AppleWebKit/537.36 (KHTML, like Gecko) Chrome/90.0.4430.212 Safari/537.36",Macintosh,Chrome,90.0.4430.212,"OS X",10_14_4,5f461dd6c139dd6b46c7596cbd57cd79
228,1,"""","""","""","""","""",sampler,260,227002,0.0-6.0-254.0,"""","""","""","""","""","""","""","""","""","""","""","""","2021-08-17 18:04:13",96.51.153.237,"Mozilla/5.0 (Macintosh; Intel Mac OS X 10_14_4) AppleWebKit/537.36 (KHTML, like Gecko) Chrome/90.0.4430.212 Safari/537.36",Macintosh,Chrome,90.0.4430.212,"OS X",10_14_4,5f461dd6c139dd6b46c7596cbd57cd79
228,1,"""","""","""","""","""",sampler,261,227002,0.0-6.0-255.0,"""","""","""","""","""","""","""","""","""","""","""","""","2021-08-17 18:04:13",96.51.153.237,"Mozilla/5.0 (Macintosh; Intel Mac OS X 10_14_4) AppleWebKit/537.36 (KHTML, like Gecko) Chrome/90.0.4430.212 Safari/537.36",Macintosh,Chrome,90.0.4430.212,"OS X",10_14_4,5f461dd6c139dd6b46c7596cbd57cd79
228,1,"""","""","""","""","""",sampler,262,227002,0.0-6.0-256.0,"""","""","""","""","""","""","""","""","""","""","""","""","2021-08-17 18:04:13",96.51.153.237,"Mozilla/5.0 (Macintosh; Intel Mac OS X 10_14_4) AppleWebKit/537.36 (KHTML, like Gecko) Chrome/90.0.4430.212 Safari/537.36",Macintosh,Chrome,90.0.4430.212,"OS X",10_14_4,5f461dd6c139dd6b46c7596cbd57cd79
228,1,"""","""","""","""","""",sampler,263,227002,0.0-6.0-257.0,"""","""","""","""","""","""","""","""","""","""","""","""","2021-08-17 18:04:13",96.51.153.237,"Mozilla/5.0 (Macintosh; Intel Mac OS X 10_14_4) AppleWebKit/537.36 (KHTML, like Gecko) Chrome/90.0.4430.212 Safari/537.36",Macintosh,Chrome,90.0.4430.212,"OS X",10_14_4,5f461dd6c139dd6b46c7596cbd57cd79
228,1,"""","""","""","""","""",sampler,264,227003,0.0-6.0-258.0,"""","""","""","""","""","""","""","""","""","""","""","""","2021-08-17 18:04:13",96.51.153.237,"Mozilla/5.0 (Macintosh; Intel Mac OS X 10_14_4) AppleWebKit/537.36 (KHTML, like Gecko) Chrome/90.0.4430.212 Safari/537.36",Macintosh,Chrome,90.0.4430.212,"OS X",10_14_4,5f461dd6c139dd6b46c7596cbd57cd79
228,1,"""","""","""","""","""",sampler,265,227003,0.0-6.0-259.0,"""","""","""","""","""","""","""","""","""","""","""","""","2021-08-17 18:04:13",96.51.153.237,"Mozilla/5.0 (Macintosh; Intel Mac OS X 10_14_4) AppleWebKit/537.36 (KHTML, like Gecko) Chrome/90.0.4430.212 Safari/537.36",Macintosh,Chrome,90.0.4430.212,"OS X",10_14_4,5f461dd6c139dd6b46c7596cbd57cd79
228,1,"""","""","""","""","""",sampler,266,227003,0.0-6.0-260.0,"""","""","""","""","""","""","""","""","""","""","""","""","2021-08-17 18:04:13",96.51.153.237,"Mozilla/5.0 (Macintosh; Intel Mac OS X 10_14_4) AppleWebKit/537.36 (KHTML, like Gecko) Chrome/90.0.4430.212 Safari/537.36",Macintosh,Chrome,90.0.4430.212,"OS X",10_14_4,5f461dd6c139dd6b46c7596cbd57cd79
228,1,"""","""","""","""","""",sampler,267,227003,0.0-6.0-261.0,"""","""","""","""","""","""","""","""","""","""","""","""","2021-08-17 18:04:13",96.51.153.237,"Mozilla/5.0 (Macintosh; Intel Mac OS X 10_14_4) AppleWebKit/537.36 (KHTML, like Gecko) Chrome/90.0.4430.212 Safari/537.36",Macintosh,Chrome,90.0.4430.212,"OS X",10_14_4,5f461dd6c139dd6b46c7596cbd57cd79
228,1,"""","""","""","""","""",sampler,268,227003,0.0-6.0-262.0,"""","""","""","""","""","""","""","""","""","""","""","""","2021-08-17 18:04:13",96.51.153.237,"Mozilla/5.0 (Macintosh; Intel Mac OS X 10_14_4) AppleWebKit/537.36 (KHTML, like Gecko) Chrome/90.0.4430.212 Safari/537.36",Macintosh,Chrome,90.0.4430.212,"OS X",10_14_4,5f461dd6c139dd6b46c7596cbd57cd79
228,1,"""","""","""","""","""",sampler,269,227003,0.0-6.0-263.0,"""","""","""","""","""","""","""","""","""","""","""","""","2021-08-17 18:04:13",96.51.153.237,"Mozilla/5.0 (Macintosh; Intel Mac OS X 10_14_4) AppleWebKit/537.36 (KHTML, like Gecko) Chrome/90.0.4430.212 Safari/537.36",Macintosh,Chrome,90.0.4430.212,"OS X",10_14_4,5f461dd6c139dd6b46c7596cbd57cd79
228,1,"""","""","""","""","""",sampler,270,227003,0.0-6.0-264.0,"""","""","""","""","""","""","""","""","""","""","""","""","2021-08-17 18:04:13",96.51.153.237,"Mozilla/5.0 (Macintosh; Intel Mac OS X 10_14_4) AppleWebKit/537.36 (KHTML, like Gecko) Chrome/90.0.4430.212 Safari/537.36",Macintosh,Chrome,90.0.4430.212,"OS X",10_14_4,5f461dd6c139dd6b46c7596cbd57cd79
228,1,"""","""","""","""","""",sampler,271,227003,0.0-6.0-265.0,"""","""","""","""","""","""","""","""","""","""","""","""","2021-08-17 18:04:13",96.51.153.237,"Mozilla/5.0 (Macintosh; Intel Mac OS X 10_14_4) AppleWebKit/537.36 (KHTML, like Gecko) Chrome/90.0.4430.212 Safari/537.36",Macintosh,Chrome,90.0.4430.212,"OS X",10_14_4,5f461dd6c139dd6b46c7596cbd57cd79
