run_id,condition,success,timeout,failed_images,failed_audio,failed_video,trial_type,trial_index,time_elapsed,internal_node_id,rt,stimulus,key_press,responses,view_history,correct,image_click,points,sd,points2,total_earn,recorded_at,ip,user_agent,device,browser,browser_version,platform,platform_version,source_code_version
193,1,true,false,"""","""","""",preload,0,2205,0.0-0.0,"""","""","""","""","""","""","""","""","""","""","""","2021-08-13 21:12:50",196.21.159.220,"Mozilla/5.0 (Windows NT 10.0; Win64; x64) AppleWebKit/537.36 (KHTML, like Gecko) Chrome/92.0.4515.131 Safari/537.36",WebKit,Chrome,92.0.4515.131,Windows,10.0,5f461dd6c139dd6b46c7596cbd57cd79
193,1,"""","""","""","""","""",html-keyboard-response,1,7360,0.0-1.0,5130,"<font size=15>Welcome to our experiment!</font><br><br><br><i> Press <b>space bar</b> to begin.</i>",32,"""","""","""","""","""","""","""","""","2021-08-13 21:12:50",196.21.159.220,"Mozilla/5.0 (Windows NT 10.0; Win64; x64) AppleWebKit/537.36 (KHTML, like Gecko) Chrome/92.0.4515.131 Safari/537.36",WebKit,Chrome,92.0.4515.131,Windows,10.0,5f461dd6c139dd6b46c7596cbd57cd79
193,1,"""","""","""","""","""",survey-multi-choice,2,26372,0.0-2.0,18983,"""","""","{""Q0"":""Yes"",""Q1"":""Yes"",""Q2"":""Yes"",""Q3"":""Yes""}","""","""","""","""","""","""","""","2021-08-13 21:12:50",196.21.159.220,"Mozilla/5.0 (Windows NT 10.0; Win64; x64) AppleWebKit/537.36 (KHTML, like Gecko) Chrome/92.0.4515.131 Safari/537.36",WebKit,Chrome,92.0.4515.131,Windows,10.0,5f461dd6c139dd6b46c7596cbd57cd79
193,1,"""","""","""","""","""",survey-html-form,3,87666,0.0-3.0,61025.10000000009,"""","""","{""gender"":""female"",""age"":""24"",""hand"":""right"",""mail"":""6102fa6ac8cbdc103f608441""}","""","""","""","""","""","""","""","2021-08-13 21:12:50",196.21.159.220,"Mozilla/5.0 (Windows NT 10.0; Win64; x64) AppleWebKit/537.36 (KHTML, like Gecko) Chrome/92.0.4515.131 Safari/537.36",WebKit,Chrome,92.0.4515.131,Windows,10.0,5f461dd6c139dd6b46c7596cbd57cd79
193,1,true,"""","""","""","""",fullscreen,4,287852,0.0-4.0,"""","""","""","""","""","""","""","""","""","""","""","2021-08-13 21:12:50",196.21.159.220,"Mozilla/5.0 (Windows NT 10.0; Win64; x64) AppleWebKit/537.36 (KHTML, like Gecko) Chrome/92.0.4515.131 Safari/537.36",WebKit,Chrome,92.0.4515.131,Windows,10.0,5f461dd6c139dd6b46c7596cbd57cd79
193,1,"""","""","""","""","""",multikey-instructions,5,981591,0.0-5.0,693713,"""","""","""","[{""page_index"":0,""viewing_time"":123020},{""page_index"":1,""viewing_time"":81076},{""page_index"":2,""viewing_time"":81773},{""page_index"":3,""viewing_time"":29549},{""page_index"":4,""viewing_time"":55947},{""page_index"":5,""viewing_time"":31766},{""page_index"":6,""viewing_time"":11963},{""page_index"":7,""viewing_time"":10753},{""page_index"":8,""viewing_time"":99877},{""page_index"":9,""viewing_time"":38091},{""page_index"":10,""viewing_time"":100158},{""page_index"":11,""viewing_time"":29734}]","""","""","""","""","""","""","2021-08-13 21:12:50",196.21.159.220,"Mozilla/5.0 (Windows NT 10.0; Win64; x64) AppleWebKit/537.36 (KHTML, like Gecko) Chrome/92.0.4515.131 Safari/537.36",WebKit,Chrome,92.0.4515.131,Windows,10.0,5f461dd6c139dd6b46c7596cbd57cd79
193,1,"""","""","""","""","""",sampler,6,1011727,0.0-6.0-0.0,29700,img/Cyan.png,"""","""","""",false,-1,15.146790440451,10,"""","""","2021-08-13 21:12:50",196.21.159.220,"Mozilla/5.0 (Windows NT 10.0; Win64; x64) AppleWebKit/537.36 (KHTML, like Gecko) Chrome/92.0.4515.131 Safari/537.36",WebKit,Chrome,92.0.4515.131,Windows,10.0,5f461dd6c139dd6b46c7596cbd57cd79
193,1,"""","""","""","""","""",sampler,7,1013334,0.0-6.0-1.0,1141,img/Cyan.png,"""","""","""",false,-1,7.956306739102093,10,"""","""","2021-08-13 21:12:50",196.21.159.220,"Mozilla/5.0 (Windows NT 10.0; Win64; x64) AppleWebKit/537.36 (KHTML, like Gecko) Chrome/92.0.4515.131 Safari/537.36",WebKit,Chrome,92.0.4515.131,Windows,10.0,5f461dd6c139dd6b46c7596cbd57cd79
193,1,"""","""","""","""","""",sampler,8,1014647,0.0-6.0-2.0,877,img/Cyan.png,"""","""","""",false,-1,6.523012109927169,10,"""","""","2021-08-13 21:12:50",196.21.159.220,"Mozilla/5.0 (Windows NT 10.0; Win64; x64) AppleWebKit/537.36 (KHTML, like Gecko) Chrome/92.0.4515.131 Safari/537.36",WebKit,Chrome,92.0.4515.131,Windows,10.0,5f461dd6c139dd6b46c7596cbd57cd79
193,1,"""","""","""","""","""",sampler,9,1015897,0.0-6.0-3.0,837,img/Cyan.png,"""","""","""",false,-1,-15.138065139361984,10,"""","""","2021-08-13 21:12:50",196.21.159.220,"Mozilla/5.0 (Windows NT 10.0; Win64; x64) AppleWebKit/537.36 (KHTML, like Gecko) Chrome/92.0.4515.131 Safari/537.36",WebKit,Chrome,92.0.4515.131,Windows,10.0,5f461dd6c139dd6b46c7596cbd57cd79
193,1,"""","""","""","""","""",sampler,10,1017166,0.0-6.0-4.0,849,img/Cyan.png,"""","""","""",false,-1,11.983411167234982,10,"""","""","2021-08-13 21:12:50",196.21.159.220,"Mozilla/5.0 (Windows NT 10.0; Win64; x64) AppleWebKit/537.36 (KHTML, like Gecko) Chrome/92.0.4515.131 Safari/537.36",WebKit,Chrome,92.0.4515.131,Windows,10.0,5f461dd6c139dd6b46c7596cbd57cd79
193,1,"""","""","""","""","""",sampler,11,1018754,0.0-6.0-5.0,1175,img/Cyan.png,"""","""","""",false,-1,1.433103803542107,10,"""","""","2021-08-13 21:12:50",196.21.159.220,"Mozilla/5.0 (Windows NT 10.0; Win64; x64) AppleWebKit/537.36 (KHTML, like Gecko) Chrome/92.0.4515.131 Safari/537.36",WebKit,Chrome,92.0.4515.131,Windows,10.0,5f461dd6c139dd6b46c7596cbd57cd79
193,1,"""","""","""","""","""",sampler,12,1019832,0.0-6.0-6.0,639,img/Cyan.png,"""","""","""",false,-1,11.743328881535628,10,"""","""","2021-08-13 21:12:50",196.21.159.220,"Mozilla/5.0 (Windows NT 10.0; Win64; x64) AppleWebKit/537.36 (KHTML, like Gecko) Chrome/92.0.4515.131 Safari/537.36",WebKit,Chrome,92.0.4515.131,Windows,10.0,5f461dd6c139dd6b46c7596cbd57cd79
193,1,"""","""","""","""","""",sampler,13,1022912,0.0-6.0-7.0,2667,img/Cyan.png,"""","""","""",false,-1,22.077747121831187,10,"""","""","2021-08-13 21:12:50",196.21.159.220,"Mozilla/5.0 (Windows NT 10.0; Win64; x64) AppleWebKit/537.36 (KHTML, like Gecko) Chrome/92.0.4515.131 Safari/537.36",WebKit,Chrome,92.0.4515.131,Windows,10.0,5f461dd6c139dd6b46c7596cbd57cd79
193,1,"""","""","""","""","""",sampler,14,1022916,0.0-6.0-8.0,"""","""","""","""","""","""","""","""","""","""","""","2021-08-13 21:12:50",196.21.159.220,"Mozilla/5.0 (Windows NT 10.0; Win64; x64) AppleWebKit/537.36 (KHTML, like Gecko) Chrome/92.0.4515.131 Safari/537.36",WebKit,Chrome,92.0.4515.131,Windows,10.0,5f461dd6c139dd6b46c7596cbd57cd79
193,1,"""","""","""","""","""",sampler,15,1022919,0.0-6.0-9.0,"""","""","""","""","""","""","""","""","""","""","""","2021-08-13 21:12:50",196.21.159.220,"Mozilla/5.0 (Windows NT 10.0; Win64; x64) AppleWebKit/537.36 (KHTML, like Gecko) Chrome/92.0.4515.131 Safari/537.36",WebKit,Chrome,92.0.4515.131,Windows,10.0,5f461dd6c139dd6b46c7596cbd57cd79
193,1,"""","""","""","""","""",sampler,16,1022922,0.0-6.0-10.0,"""","""","""","""","""","""","""","""","""","""","""","2021-08-13 21:12:50",196.21.159.220,"Mozilla/5.0 (Windows NT 10.0; Win64; x64) AppleWebKit/537.36 (KHTML, like Gecko) Chrome/92.0.4515.131 Safari/537.36",WebKit,Chrome,92.0.4515.131,Windows,10.0,5f461dd6c139dd6b46c7596cbd57cd79
193,1,"""","""","""","""","""",sampler,17,1022924,0.0-6.0-11.0,"""","""","""","""","""","""","""","""","""","""","""","2021-08-13 21:12:50",196.21.159.220,"Mozilla/5.0 (Windows NT 10.0; Win64; x64) AppleWebKit/537.36 (KHTML, like Gecko) Chrome/92.0.4515.131 Safari/537.36",WebKit,Chrome,92.0.4515.131,Windows,10.0,5f461dd6c139dd6b46c7596cbd57cd79
193,1,"""","""","""","""","""",sampler,18,1022927,0.0-6.0-12.0,"""","""","""","""","""","""","""","""","""","""","""","2021-08-13 21:12:50",196.21.159.220,"Mozilla/5.0 (Windows NT 10.0; Win64; x64) AppleWebKit/537.36 (KHTML, like Gecko) Chrome/92.0.4515.131 Safari/537.36",WebKit,Chrome,92.0.4515.131,Windows,10.0,5f461dd6c139dd6b46c7596cbd57cd79
193,1,"""","""","""","""","""",sampler,19,1022930,0.0-6.0-13.0,"""","""","""","""","""","""","""","""","""","""","""","2021-08-13 21:12:50",196.21.159.220,"Mozilla/5.0 (Windows NT 10.0; Win64; x64) AppleWebKit/537.36 (KHTML, like Gecko) Chrome/92.0.4515.131 Safari/537.36",WebKit,Chrome,92.0.4515.131,Windows,10.0,5f461dd6c139dd6b46c7596cbd57cd79
193,1,"""","""","""","""","""",sampler,20,1022932,0.0-6.0-14.0,"""","""","""","""","""","""","""","""","""","""","""","2021-08-13 21:12:50",196.21.159.220,"Mozilla/5.0 (Windows NT 10.0; Win64; x64) AppleWebKit/537.36 (KHTML, like Gecko) Chrome/92.0.4515.131 Safari/537.36",WebKit,Chrome,92.0.4515.131,Windows,10.0,5f461dd6c139dd6b46c7596cbd57cd79
193,1,"""","""","""","""","""",sampler,21,1022935,0.0-6.0-15.0,"""","""","""","""","""","""","""","""","""","""","""","2021-08-13 21:12:50",196.21.159.220,"Mozilla/5.0 (Windows NT 10.0; Win64; x64) AppleWebKit/537.36 (KHTML, like Gecko) Chrome/92.0.4515.131 Safari/537.36",WebKit,Chrome,92.0.4515.131,Windows,10.0,5f461dd6c139dd6b46c7596cbd57cd79
193,1,"""","""","""","""","""",sampler,22,1022937,0.0-6.0-16.0,"""","""","""","""","""","""","""","""","""","""","""","2021-08-13 21:12:50",196.21.159.220,"Mozilla/5.0 (Windows NT 10.0; Win64; x64) AppleWebKit/537.36 (KHTML, like Gecko) Chrome/92.0.4515.131 Safari/537.36",WebKit,Chrome,92.0.4515.131,Windows,10.0,5f461dd6c139dd6b46c7596cbd57cd79
193,1,"""","""","""","""","""",sampler,23,1022940,0.0-6.0-17.0,"""","""","""","""","""","""","""","""","""","""","""","2021-08-13 21:12:50",196.21.159.220,"Mozilla/5.0 (Windows NT 10.0; Win64; x64) AppleWebKit/537.36 (KHTML, like Gecko) Chrome/92.0.4515.131 Safari/537.36",WebKit,Chrome,92.0.4515.131,Windows,10.0,5f461dd6c139dd6b46c7596cbd57cd79
193,1,"""","""","""","""","""",sampler,24,1022942,0.0-6.0-18.0,"""","""","""","""","""","""","""","""","""","""","""","2021-08-13 21:12:50",196.21.159.220,"Mozilla/5.0 (Windows NT 10.0; Win64; x64) AppleWebKit/537.36 (KHTML, like Gecko) Chrome/92.0.4515.131 Safari/537.36",WebKit,Chrome,92.0.4515.131,Windows,10.0,5f461dd6c139dd6b46c7596cbd57cd79
193,1,"""","""","""","""","""",sampler,25,1022943,0.0-6.0-19.0,"""","""","""","""","""","""","""","""","""","""","""","2021-08-13 21:12:50",196.21.159.220,"Mozilla/5.0 (Windows NT 10.0; Win64; x64) AppleWebKit/537.36 (KHTML, like Gecko) Chrome/92.0.4515.131 Safari/537.36",WebKit,Chrome,92.0.4515.131,Windows,10.0,5f461dd6c139dd6b46c7596cbd57cd79
193,1,"""","""","""","""","""",sampler,26,1022943,0.0-6.0-20.0,"""","""","""","""","""","""","""","""","""","""","""","2021-08-13 21:12:50",196.21.159.220,"Mozilla/5.0 (Windows NT 10.0; Win64; x64) AppleWebKit/537.36 (KHTML, like Gecko) Chrome/92.0.4515.131 Safari/537.36",WebKit,Chrome,92.0.4515.131,Windows,10.0,5f461dd6c139dd6b46c7596cbd57cd79
193,1,"""","""","""","""","""",sampler,27,1022944,0.0-6.0-21.0,"""","""","""","""","""","""","""","""","""","""","""","2021-08-13 21:12:50",196.21.159.220,"Mozilla/5.0 (Windows NT 10.0; Win64; x64) AppleWebKit/537.36 (KHTML, like Gecko) Chrome/92.0.4515.131 Safari/537.36",WebKit,Chrome,92.0.4515.131,Windows,10.0,5f461dd6c139dd6b46c7596cbd57cd79
193,1,"""","""","""","""","""",sampler,28,1022945,0.0-6.0-22.0,"""","""","""","""","""","""","""","""","""","""","""","2021-08-13 21:12:50",196.21.159.220,"Mozilla/5.0 (Windows NT 10.0; Win64; x64) AppleWebKit/537.36 (KHTML, like Gecko) Chrome/92.0.4515.131 Safari/537.36",WebKit,Chrome,92.0.4515.131,Windows,10.0,5f461dd6c139dd6b46c7596cbd57cd79
193,1,"""","""","""","""","""",sampler,29,1022945,0.0-6.0-23.0,"""","""","""","""","""","""","""","""","""","""","""","2021-08-13 21:12:50",196.21.159.220,"Mozilla/5.0 (Windows NT 10.0; Win64; x64) AppleWebKit/537.36 (KHTML, like Gecko) Chrome/92.0.4515.131 Safari/537.36",WebKit,Chrome,92.0.4515.131,Windows,10.0,5f461dd6c139dd6b46c7596cbd57cd79
193,1,"""","""","""","""","""",sampler,30,1022946,0.0-6.0-24.0,"""","""","""","""","""","""","""","""","""","""","""","2021-08-13 21:12:50",196.21.159.220,"Mozilla/5.0 (Windows NT 10.0; Win64; x64) AppleWebKit/537.36 (KHTML, like Gecko) Chrome/92.0.4515.131 Safari/537.36",WebKit,Chrome,92.0.4515.131,Windows,10.0,5f461dd6c139dd6b46c7596cbd57cd79
193,1,"""","""","""","""","""",sampler,31,1022946,0.0-6.0-25.0,"""","""","""","""","""","""","""","""","""","""","""","2021-08-13 21:12:50",196.21.159.220,"Mozilla/5.0 (Windows NT 10.0; Win64; x64) AppleWebKit/537.36 (KHTML, like Gecko) Chrome/92.0.4515.131 Safari/537.36",WebKit,Chrome,92.0.4515.131,Windows,10.0,5f461dd6c139dd6b46c7596cbd57cd79
193,1,"""","""","""","""","""",sampler,32,1022947,0.0-6.0-26.0,"""","""","""","""","""","""","""","""","""","""","""","2021-08-13 21:12:50",196.21.159.220,"Mozilla/5.0 (Windows NT 10.0; Win64; x64) AppleWebKit/537.36 (KHTML, like Gecko) Chrome/92.0.4515.131 Safari/537.36",WebKit,Chrome,92.0.4515.131,Windows,10.0,5f461dd6c139dd6b46c7596cbd57cd79
193,1,"""","""","""","""","""",sampler,33,1022947,0.0-6.0-27.0,"""","""","""","""","""","""","""","""","""","""","""","2021-08-13 21:12:50",196.21.159.220,"Mozilla/5.0 (Windows NT 10.0; Win64; x64) AppleWebKit/537.36 (KHTML, like Gecko) Chrome/92.0.4515.131 Safari/537.36",WebKit,Chrome,92.0.4515.131,Windows,10.0,5f461dd6c139dd6b46c7596cbd57cd79
193,1,"""","""","""","""","""",sampler,34,1022948,0.0-6.0-28.0,"""","""","""","""","""","""","""","""","""","""","""","2021-08-13 21:12:50",196.21.159.220,"Mozilla/5.0 (Windows NT 10.0; Win64; x64) AppleWebKit/537.36 (KHTML, like Gecko) Chrome/92.0.4515.131 Safari/537.36",WebKit,Chrome,92.0.4515.131,Windows,10.0,5f461dd6c139dd6b46c7596cbd57cd79
193,1,"""","""","""","""","""",sampler,35,1022948,0.0-6.0-29.0,"""","""","""","""","""","""","""","""","""","""","""","2021-08-13 21:12:50",196.21.159.220,"Mozilla/5.0 (Windows NT 10.0; Win64; x64) AppleWebKit/537.36 (KHTML, like Gecko) Chrome/92.0.4515.131 Safari/537.36",WebKit,Chrome,92.0.4515.131,Windows,10.0,5f461dd6c139dd6b46c7596cbd57cd79
193,1,"""","""","""","""","""",sampler,36,1022949,0.0-6.0-30.0,"""","""","""","""","""","""","""","""","""","""","""","2021-08-13 21:12:50",196.21.159.220,"Mozilla/5.0 (Windows NT 10.0; Win64; x64) AppleWebKit/537.36 (KHTML, like Gecko) Chrome/92.0.4515.131 Safari/537.36",WebKit,Chrome,92.0.4515.131,Windows,10.0,5f461dd6c139dd6b46c7596cbd57cd79
193,1,"""","""","""","""","""",sampler,37,1022949,0.0-6.0-31.0,"""","""","""","""","""","""","""","""","""","""","""","2021-08-13 21:12:50",196.21.159.220,"Mozilla/5.0 (Windows NT 10.0; Win64; x64) AppleWebKit/537.36 (KHTML, like Gecko) Chrome/92.0.4515.131 Safari/537.36",WebKit,Chrome,92.0.4515.131,Windows,10.0,5f461dd6c139dd6b46c7596cbd57cd79
193,1,"""","""","""","""","""",sampler,38,1022950,0.0-6.0-32.0,"""","""","""","""","""","""","""","""","""","""","""","2021-08-13 21:12:50",196.21.159.220,"Mozilla/5.0 (Windows NT 10.0; Win64; x64) AppleWebKit/537.36 (KHTML, like Gecko) Chrome/92.0.4515.131 Safari/537.36",WebKit,Chrome,92.0.4515.131,Windows,10.0,5f461dd6c139dd6b46c7596cbd57cd79
193,1,"""","""","""","""","""",sampler,39,1022951,0.0-6.0-33.0,"""","""","""","""","""","""","""","""","""","""","""","2021-08-13 21:12:50",196.21.159.220,"Mozilla/5.0 (Windows NT 10.0; Win64; x64) AppleWebKit/537.36 (KHTML, like Gecko) Chrome/92.0.4515.131 Safari/537.36",WebKit,Chrome,92.0.4515.131,Windows,10.0,5f461dd6c139dd6b46c7596cbd57cd79
193,1,"""","""","""","""","""",sampler,40,1022951,0.0-6.0-34.0,"""","""","""","""","""","""","""","""","""","""","""","2021-08-13 21:12:50",196.21.159.220,"Mozilla/5.0 (Windows NT 10.0; Win64; x64) AppleWebKit/537.36 (KHTML, like Gecko) Chrome/92.0.4515.131 Safari/537.36",WebKit,Chrome,92.0.4515.131,Windows,10.0,5f461dd6c139dd6b46c7596cbd57cd79
193,1,"""","""","""","""","""",sampler,41,1022952,0.0-6.0-35.0,"""","""","""","""","""","""","""","""","""","""","""","2021-08-13 21:12:50",196.21.159.220,"Mozilla/5.0 (Windows NT 10.0; Win64; x64) AppleWebKit/537.36 (KHTML, like Gecko) Chrome/92.0.4515.131 Safari/537.36",WebKit,Chrome,92.0.4515.131,Windows,10.0,5f461dd6c139dd6b46c7596cbd57cd79
193,1,"""","""","""","""","""",sampler,42,1022952,0.0-6.0-36.0,"""","""","""","""","""","""","""","""","""","""","""","2021-08-13 21:12:50",196.21.159.220,"Mozilla/5.0 (Windows NT 10.0; Win64; x64) AppleWebKit/537.36 (KHTML, like Gecko) Chrome/92.0.4515.131 Safari/537.36",WebKit,Chrome,92.0.4515.131,Windows,10.0,5f461dd6c139dd6b46c7596cbd57cd79
193,1,"""","""","""","""","""",sampler,43,1022953,0.0-6.0-37.0,"""","""","""","""","""","""","""","""","""","""","""","2021-08-13 21:12:50",196.21.159.220,"Mozilla/5.0 (Windows NT 10.0; Win64; x64) AppleWebKit/537.36 (KHTML, like Gecko) Chrome/92.0.4515.131 Safari/537.36",WebKit,Chrome,92.0.4515.131,Windows,10.0,5f461dd6c139dd6b46c7596cbd57cd79
193,1,"""","""","""","""","""",sampler,44,1022953,0.0-6.0-38.0,"""","""","""","""","""","""","""","""","""","""","""","2021-08-13 21:12:50",196.21.159.220,"Mozilla/5.0 (Windows NT 10.0; Win64; x64) AppleWebKit/537.36 (KHTML, like Gecko) Chrome/92.0.4515.131 Safari/537.36",WebKit,Chrome,92.0.4515.131,Windows,10.0,5f461dd6c139dd6b46c7596cbd57cd79
193,1,"""","""","""","""","""",sampler,45,1022954,0.0-6.0-39.0,"""","""","""","""","""","""","""","""","""","""","""","2021-08-13 21:12:50",196.21.159.220,"Mozilla/5.0 (Windows NT 10.0; Win64; x64) AppleWebKit/537.36 (KHTML, like Gecko) Chrome/92.0.4515.131 Safari/537.36",WebKit,Chrome,92.0.4515.131,Windows,10.0,5f461dd6c139dd6b46c7596cbd57cd79
193,1,"""","""","""","""","""",sampler,46,1022955,0.0-6.0-40.0,"""","""","""","""","""","""","""","""","""","""","""","2021-08-13 21:12:50",196.21.159.220,"Mozilla/5.0 (Windows NT 10.0; Win64; x64) AppleWebKit/537.36 (KHTML, like Gecko) Chrome/92.0.4515.131 Safari/537.36",WebKit,Chrome,92.0.4515.131,Windows,10.0,5f461dd6c139dd6b46c7596cbd57cd79
193,1,"""","""","""","""","""",sampler,47,1022955,0.0-6.0-41.0,"""","""","""","""","""","""","""","""","""","""","""","2021-08-13 21:12:50",196.21.159.220,"Mozilla/5.0 (Windows NT 10.0; Win64; x64) AppleWebKit/537.36 (KHTML, like Gecko) Chrome/92.0.4515.131 Safari/537.36",WebKit,Chrome,92.0.4515.131,Windows,10.0,5f461dd6c139dd6b46c7596cbd57cd79
193,1,"""","""","""","""","""",sampler,48,1022956,0.0-6.0-42.0,"""","""","""","""","""","""","""","""","""","""","""","2021-08-13 21:12:50",196.21.159.220,"Mozilla/5.0 (Windows NT 10.0; Win64; x64) AppleWebKit/537.36 (KHTML, like Gecko) Chrome/92.0.4515.131 Safari/537.36",WebKit,Chrome,92.0.4515.131,Windows,10.0,5f461dd6c139dd6b46c7596cbd57cd79
193,1,"""","""","""","""","""",sampler,49,1022956,0.0-6.0-43.0,"""","""","""","""","""","""","""","""","""","""","""","2021-08-13 21:12:50",196.21.159.220,"Mozilla/5.0 (Windows NT 10.0; Win64; x64) AppleWebKit/537.36 (KHTML, like Gecko) Chrome/92.0.4515.131 Safari/537.36",WebKit,Chrome,92.0.4515.131,Windows,10.0,5f461dd6c139dd6b46c7596cbd57cd79
193,1,"""","""","""","""","""",sampler,50,1022957,0.0-6.0-44.0,"""","""","""","""","""","""","""","""","""","""","""","2021-08-13 21:12:50",196.21.159.220,"Mozilla/5.0 (Windows NT 10.0; Win64; x64) AppleWebKit/537.36 (KHTML, like Gecko) Chrome/92.0.4515.131 Safari/537.36",WebKit,Chrome,92.0.4515.131,Windows,10.0,5f461dd6c139dd6b46c7596cbd57cd79
193,1,"""","""","""","""","""",sampler,51,1022958,0.0-6.0-45.0,"""","""","""","""","""","""","""","""","""","""","""","2021-08-13 21:12:50",196.21.159.220,"Mozilla/5.0 (Windows NT 10.0; Win64; x64) AppleWebKit/537.36 (KHTML, like Gecko) Chrome/92.0.4515.131 Safari/537.36",WebKit,Chrome,92.0.4515.131,Windows,10.0,5f461dd6c139dd6b46c7596cbd57cd79
193,1,"""","""","""","""","""",sampler,52,1022958,0.0-6.0-46.0,"""","""","""","""","""","""","""","""","""","""","""","2021-08-13 21:12:50",196.21.159.220,"Mozilla/5.0 (Windows NT 10.0; Win64; x64) AppleWebKit/537.36 (KHTML, like Gecko) Chrome/92.0.4515.131 Safari/537.36",WebKit,Chrome,92.0.4515.131,Windows,10.0,5f461dd6c139dd6b46c7596cbd57cd79
193,1,"""","""","""","""","""",sampler,53,1022959,0.0-6.0-47.0,"""","""","""","""","""","""","""","""","""","""","""","2021-08-13 21:12:50",196.21.159.220,"Mozilla/5.0 (Windows NT 10.0; Win64; x64) AppleWebKit/537.36 (KHTML, like Gecko) Chrome/92.0.4515.131 Safari/537.36",WebKit,Chrome,92.0.4515.131,Windows,10.0,5f461dd6c139dd6b46c7596cbd57cd79
193,1,"""","""","""","""","""",sampler,54,1022960,0.0-6.0-48.0,"""","""","""","""","""","""","""","""","""","""","""","2021-08-13 21:12:50",196.21.159.220,"Mozilla/5.0 (Windows NT 10.0; Win64; x64) AppleWebKit/537.36 (KHTML, like Gecko) Chrome/92.0.4515.131 Safari/537.36",WebKit,Chrome,92.0.4515.131,Windows,10.0,5f461dd6c139dd6b46c7596cbd57cd79
193,1,"""","""","""","""","""",sampler,55,1022960,0.0-6.0-49.0,"""","""","""","""","""","""","""","""","""","""","""","2021-08-13 21:12:50",196.21.159.220,"Mozilla/5.0 (Windows NT 10.0; Win64; x64) AppleWebKit/537.36 (KHTML, like Gecko) Chrome/92.0.4515.131 Safari/537.36",WebKit,Chrome,92.0.4515.131,Windows,10.0,5f461dd6c139dd6b46c7596cbd57cd79
193,1,"""","""","""","""","""",sampler,56,1022961,0.0-6.0-50.0,"""","""","""","""","""","""","""","""","""","""","""","2021-08-13 21:12:50",196.21.159.220,"Mozilla/5.0 (Windows NT 10.0; Win64; x64) AppleWebKit/537.36 (KHTML, like Gecko) Chrome/92.0.4515.131 Safari/537.36",WebKit,Chrome,92.0.4515.131,Windows,10.0,5f461dd6c139dd6b46c7596cbd57cd79
193,1,"""","""","""","""","""",sampler,57,1022961,0.0-6.0-51.0,"""","""","""","""","""","""","""","""","""","""","""","2021-08-13 21:12:50",196.21.159.220,"Mozilla/5.0 (Windows NT 10.0; Win64; x64) AppleWebKit/537.36 (KHTML, like Gecko) Chrome/92.0.4515.131 Safari/537.36",WebKit,Chrome,92.0.4515.131,Windows,10.0,5f461dd6c139dd6b46c7596cbd57cd79
193,1,"""","""","""","""","""",sampler,58,1022962,0.0-6.0-52.0,"""","""","""","""","""","""","""","""","""","""","""","2021-08-13 21:12:50",196.21.159.220,"Mozilla/5.0 (Windows NT 10.0; Win64; x64) AppleWebKit/537.36 (KHTML, like Gecko) Chrome/92.0.4515.131 Safari/537.36",WebKit,Chrome,92.0.4515.131,Windows,10.0,5f461dd6c139dd6b46c7596cbd57cd79
193,1,"""","""","""","""","""",sampler,59,1022962,0.0-6.0-53.0,"""","""","""","""","""","""","""","""","""","""","""","2021-08-13 21:12:50",196.21.159.220,"Mozilla/5.0 (Windows NT 10.0; Win64; x64) AppleWebKit/537.36 (KHTML, like Gecko) Chrome/92.0.4515.131 Safari/537.36",WebKit,Chrome,92.0.4515.131,Windows,10.0,5f461dd6c139dd6b46c7596cbd57cd79
193,1,"""","""","""","""","""",sampler,60,1022963,0.0-6.0-54.0,"""","""","""","""","""","""","""","""","""","""","""","2021-08-13 21:12:50",196.21.159.220,"Mozilla/5.0 (Windows NT 10.0; Win64; x64) AppleWebKit/537.36 (KHTML, like Gecko) Chrome/92.0.4515.131 Safari/537.36",WebKit,Chrome,92.0.4515.131,Windows,10.0,5f461dd6c139dd6b46c7596cbd57cd79
193,1,"""","""","""","""","""",sampler,61,1022964,0.0-6.0-55.0,"""","""","""","""","""","""","""","""","""","""","""","2021-08-13 21:12:50",196.21.159.220,"Mozilla/5.0 (Windows NT 10.0; Win64; x64) AppleWebKit/537.36 (KHTML, like Gecko) Chrome/92.0.4515.131 Safari/537.36",WebKit,Chrome,92.0.4515.131,Windows,10.0,5f461dd6c139dd6b46c7596cbd57cd79
193,1,"""","""","""","""","""",sampler,62,1022964,0.0-6.0-56.0,"""","""","""","""","""","""","""","""","""","""","""","2021-08-13 21:12:50",196.21.159.220,"Mozilla/5.0 (Windows NT 10.0; Win64; x64) AppleWebKit/537.36 (KHTML, like Gecko) Chrome/92.0.4515.131 Safari/537.36",WebKit,Chrome,92.0.4515.131,Windows,10.0,5f461dd6c139dd6b46c7596cbd57cd79
193,1,"""","""","""","""","""",sampler,63,1022965,0.0-6.0-57.0,"""","""","""","""","""","""","""","""","""","""","""","2021-08-13 21:12:50",196.21.159.220,"Mozilla/5.0 (Windows NT 10.0; Win64; x64) AppleWebKit/537.36 (KHTML, like Gecko) Chrome/92.0.4515.131 Safari/537.36",WebKit,Chrome,92.0.4515.131,Windows,10.0,5f461dd6c139dd6b46c7596cbd57cd79
193,1,"""","""","""","""","""",sampler,64,1022965,0.0-6.0-58.0,"""","""","""","""","""","""","""","""","""","""","""","2021-08-13 21:12:50",196.21.159.220,"Mozilla/5.0 (Windows NT 10.0; Win64; x64) AppleWebKit/537.36 (KHTML, like Gecko) Chrome/92.0.4515.131 Safari/537.36",WebKit,Chrome,92.0.4515.131,Windows,10.0,5f461dd6c139dd6b46c7596cbd57cd79
193,1,"""","""","""","""","""",sampler,65,1022966,0.0-6.0-59.0,"""","""","""","""","""","""","""","""","""","""","""","2021-08-13 21:12:50",196.21.159.220,"Mozilla/5.0 (Windows NT 10.0; Win64; x64) AppleWebKit/537.36 (KHTML, like Gecko) Chrome/92.0.4515.131 Safari/537.36",WebKit,Chrome,92.0.4515.131,Windows,10.0,5f461dd6c139dd6b46c7596cbd57cd79
193,1,"""","""","""","""","""",sampler,66,1022966,0.0-6.0-60.0,"""","""","""","""","""","""","""","""","""","""","""","2021-08-13 21:12:50",196.21.159.220,"Mozilla/5.0 (Windows NT 10.0; Win64; x64) AppleWebKit/537.36 (KHTML, like Gecko) Chrome/92.0.4515.131 Safari/537.36",WebKit,Chrome,92.0.4515.131,Windows,10.0,5f461dd6c139dd6b46c7596cbd57cd79
193,1,"""","""","""","""","""",sampler,67,1022967,0.0-6.0-61.0,"""","""","""","""","""","""","""","""","""","""","""","2021-08-13 21:12:50",196.21.159.220,"Mozilla/5.0 (Windows NT 10.0; Win64; x64) AppleWebKit/537.36 (KHTML, like Gecko) Chrome/92.0.4515.131 Safari/537.36",WebKit,Chrome,92.0.4515.131,Windows,10.0,5f461dd6c139dd6b46c7596cbd57cd79
193,1,"""","""","""","""","""",sampler,68,1022968,0.0-6.0-62.0,"""","""","""","""","""","""","""","""","""","""","""","2021-08-13 21:12:50",196.21.159.220,"Mozilla/5.0 (Windows NT 10.0; Win64; x64) AppleWebKit/537.36 (KHTML, like Gecko) Chrome/92.0.4515.131 Safari/537.36",WebKit,Chrome,92.0.4515.131,Windows,10.0,5f461dd6c139dd6b46c7596cbd57cd79
193,1,"""","""","""","""","""",sampler,69,1022968,0.0-6.0-63.0,"""","""","""","""","""","""","""","""","""","""","""","2021-08-13 21:12:50",196.21.159.220,"Mozilla/5.0 (Windows NT 10.0; Win64; x64) AppleWebKit/537.36 (KHTML, like Gecko) Chrome/92.0.4515.131 Safari/537.36",WebKit,Chrome,92.0.4515.131,Windows,10.0,5f461dd6c139dd6b46c7596cbd57cd79
193,1,"""","""","""","""","""",sampler,70,1022972,0.0-6.0-64.0,"""","""","""","""","""","""","""","""","""","""","""","2021-08-13 21:12:50",196.21.159.220,"Mozilla/5.0 (Windows NT 10.0; Win64; x64) AppleWebKit/537.36 (KHTML, like Gecko) Chrome/92.0.4515.131 Safari/537.36",WebKit,Chrome,92.0.4515.131,Windows,10.0,5f461dd6c139dd6b46c7596cbd57cd79
193,1,"""","""","""","""","""",sampler,71,1022975,0.0-6.0-65.0,"""","""","""","""","""","""","""","""","""","""","""","2021-08-13 21:12:50",196.21.159.220,"Mozilla/5.0 (Windows NT 10.0; Win64; x64) AppleWebKit/537.36 (KHTML, like Gecko) Chrome/92.0.4515.131 Safari/537.36",WebKit,Chrome,92.0.4515.131,Windows,10.0,5f461dd6c139dd6b46c7596cbd57cd79
193,1,"""","""","""","""","""",sampler,72,1022976,0.0-6.0-66.0,"""","""","""","""","""","""","""","""","""","""","""","2021-08-13 21:12:50",196.21.159.220,"Mozilla/5.0 (Windows NT 10.0; Win64; x64) AppleWebKit/537.36 (KHTML, like Gecko) Chrome/92.0.4515.131 Safari/537.36",WebKit,Chrome,92.0.4515.131,Windows,10.0,5f461dd6c139dd6b46c7596cbd57cd79
193,1,"""","""","""","""","""",sampler,73,1022976,0.0-6.0-67.0,"""","""","""","""","""","""","""","""","""","""","""","2021-08-13 21:12:50",196.21.159.220,"Mozilla/5.0 (Windows NT 10.0; Win64; x64) AppleWebKit/537.36 (KHTML, like Gecko) Chrome/92.0.4515.131 Safari/537.36",WebKit,Chrome,92.0.4515.131,Windows,10.0,5f461dd6c139dd6b46c7596cbd57cd79
193,1,"""","""","""","""","""",sampler,74,1022977,0.0-6.0-68.0,"""","""","""","""","""","""","""","""","""","""","""","2021-08-13 21:12:50",196.21.159.220,"Mozilla/5.0 (Windows NT 10.0; Win64; x64) AppleWebKit/537.36 (KHTML, like Gecko) Chrome/92.0.4515.131 Safari/537.36",WebKit,Chrome,92.0.4515.131,Windows,10.0,5f461dd6c139dd6b46c7596cbd57cd79
193,1,"""","""","""","""","""",sampler,75,1022978,0.0-6.0-69.0,"""","""","""","""","""","""","""","""","""","""","""","2021-08-13 21:12:50",196.21.159.220,"Mozilla/5.0 (Windows NT 10.0; Win64; x64) AppleWebKit/537.36 (KHTML, like Gecko) Chrome/92.0.4515.131 Safari/537.36",WebKit,Chrome,92.0.4515.131,Windows,10.0,5f461dd6c139dd6b46c7596cbd57cd79
193,1,"""","""","""","""","""",sampler,76,1022978,0.0-6.0-70.0,"""","""","""","""","""","""","""","""","""","""","""","2021-08-13 21:12:50",196.21.159.220,"Mozilla/5.0 (Windows NT 10.0; Win64; x64) AppleWebKit/537.36 (KHTML, like Gecko) Chrome/92.0.4515.131 Safari/537.36",WebKit,Chrome,92.0.4515.131,Windows,10.0,5f461dd6c139dd6b46c7596cbd57cd79
193,1,"""","""","""","""","""",sampler,77,1022979,0.0-6.0-71.0,"""","""","""","""","""","""","""","""","""","""","""","2021-08-13 21:12:50",196.21.159.220,"Mozilla/5.0 (Windows NT 10.0; Win64; x64) AppleWebKit/537.36 (KHTML, like Gecko) Chrome/92.0.4515.131 Safari/537.36",WebKit,Chrome,92.0.4515.131,Windows,10.0,5f461dd6c139dd6b46c7596cbd57cd79
193,1,"""","""","""","""","""",sampler,78,1022979,0.0-6.0-72.0,"""","""","""","""","""","""","""","""","""","""","""","2021-08-13 21:12:50",196.21.159.220,"Mozilla/5.0 (Windows NT 10.0; Win64; x64) AppleWebKit/537.36 (KHTML, like Gecko) Chrome/92.0.4515.131 Safari/537.36",WebKit,Chrome,92.0.4515.131,Windows,10.0,5f461dd6c139dd6b46c7596cbd57cd79
193,1,"""","""","""","""","""",sampler,79,1022980,0.0-6.0-73.0,"""","""","""","""","""","""","""","""","""","""","""","2021-08-13 21:12:50",196.21.159.220,"Mozilla/5.0 (Windows NT 10.0; Win64; x64) AppleWebKit/537.36 (KHTML, like Gecko) Chrome/92.0.4515.131 Safari/537.36",WebKit,Chrome,92.0.4515.131,Windows,10.0,5f461dd6c139dd6b46c7596cbd57cd79
193,1,"""","""","""","""","""",sampler,80,1022989,0.0-6.0-74.0,"""","""","""","""","""","""","""","""","""","""","""","2021-08-13 21:12:50",196.21.159.220,"Mozilla/5.0 (Windows NT 10.0; Win64; x64) AppleWebKit/537.36 (KHTML, like Gecko) Chrome/92.0.4515.131 Safari/537.36",WebKit,Chrome,92.0.4515.131,Windows,10.0,5f461dd6c139dd6b46c7596cbd57cd79
193,1,"""","""","""","""","""",sampler,81,1022990,0.0-6.0-75.0,"""","""","""","""","""","""","""","""","""","""","""","2021-08-13 21:12:50",196.21.159.220,"Mozilla/5.0 (Windows NT 10.0; Win64; x64) AppleWebKit/537.36 (KHTML, like Gecko) Chrome/92.0.4515.131 Safari/537.36",WebKit,Chrome,92.0.4515.131,Windows,10.0,5f461dd6c139dd6b46c7596cbd57cd79
193,1,"""","""","""","""","""",sampler,82,1022990,0.0-6.0-76.0,"""","""","""","""","""","""","""","""","""","""","""","2021-08-13 21:12:50",196.21.159.220,"Mozilla/5.0 (Windows NT 10.0; Win64; x64) AppleWebKit/537.36 (KHTML, like Gecko) Chrome/92.0.4515.131 Safari/537.36",WebKit,Chrome,92.0.4515.131,Windows,10.0,5f461dd6c139dd6b46c7596cbd57cd79
193,1,"""","""","""","""","""",sampler,83,1022991,0.0-6.0-77.0,"""","""","""","""","""","""","""","""","""","""","""","2021-08-13 21:12:50",196.21.159.220,"Mozilla/5.0 (Windows NT 10.0; Win64; x64) AppleWebKit/537.36 (KHTML, like Gecko) Chrome/92.0.4515.131 Safari/537.36",WebKit,Chrome,92.0.4515.131,Windows,10.0,5f461dd6c139dd6b46c7596cbd57cd79
193,1,"""","""","""","""","""",sampler,84,1022991,0.0-6.0-78.0,"""","""","""","""","""","""","""","""","""","""","""","2021-08-13 21:12:50",196.21.159.220,"Mozilla/5.0 (Windows NT 10.0; Win64; x64) AppleWebKit/537.36 (KHTML, like Gecko) Chrome/92.0.4515.131 Safari/537.36",WebKit,Chrome,92.0.4515.131,Windows,10.0,5f461dd6c139dd6b46c7596cbd57cd79
193,1,"""","""","""","""","""",sampler,85,1022992,0.0-6.0-79.0,"""","""","""","""","""","""","""","""","""","""","""","2021-08-13 21:12:50",196.21.159.220,"Mozilla/5.0 (Windows NT 10.0; Win64; x64) AppleWebKit/537.36 (KHTML, like Gecko) Chrome/92.0.4515.131 Safari/537.36",WebKit,Chrome,92.0.4515.131,Windows,10.0,5f461dd6c139dd6b46c7596cbd57cd79
193,1,"""","""","""","""","""",sampler,86,1022993,0.0-6.0-80.0,"""","""","""","""","""","""","""","""","""","""","""","2021-08-13 21:12:50",196.21.159.220,"Mozilla/5.0 (Windows NT 10.0; Win64; x64) AppleWebKit/537.36 (KHTML, like Gecko) Chrome/92.0.4515.131 Safari/537.36",WebKit,Chrome,92.0.4515.131,Windows,10.0,5f461dd6c139dd6b46c7596cbd57cd79
193,1,"""","""","""","""","""",sampler,87,1022994,0.0-6.0-81.0,"""","""","""","""","""","""","""","""","""","""","""","2021-08-13 21:12:50",196.21.159.220,"Mozilla/5.0 (Windows NT 10.0; Win64; x64) AppleWebKit/537.36 (KHTML, like Gecko) Chrome/92.0.4515.131 Safari/537.36",WebKit,Chrome,92.0.4515.131,Windows,10.0,5f461dd6c139dd6b46c7596cbd57cd79
193,1,"""","""","""","""","""",sampler,88,1022995,0.0-6.0-82.0,"""","""","""","""","""","""","""","""","""","""","""","2021-08-13 21:12:50",196.21.159.220,"Mozilla/5.0 (Windows NT 10.0; Win64; x64) AppleWebKit/537.36 (KHTML, like Gecko) Chrome/92.0.4515.131 Safari/537.36",WebKit,Chrome,92.0.4515.131,Windows,10.0,5f461dd6c139dd6b46c7596cbd57cd79
193,1,"""","""","""","""","""",sampler,89,1022995,0.0-6.0-83.0,"""","""","""","""","""","""","""","""","""","""","""","2021-08-13 21:12:50",196.21.159.220,"Mozilla/5.0 (Windows NT 10.0; Win64; x64) AppleWebKit/537.36 (KHTML, like Gecko) Chrome/92.0.4515.131 Safari/537.36",WebKit,Chrome,92.0.4515.131,Windows,10.0,5f461dd6c139dd6b46c7596cbd57cd79
193,1,"""","""","""","""","""",sampler,90,1022996,0.0-6.0-84.0,"""","""","""","""","""","""","""","""","""","""","""","2021-08-13 21:12:50",196.21.159.220,"Mozilla/5.0 (Windows NT 10.0; Win64; x64) AppleWebKit/537.36 (KHTML, like Gecko) Chrome/92.0.4515.131 Safari/537.36",WebKit,Chrome,92.0.4515.131,Windows,10.0,5f461dd6c139dd6b46c7596cbd57cd79
193,1,"""","""","""","""","""",sampler,91,1022996,0.0-6.0-85.0,"""","""","""","""","""","""","""","""","""","""","""","2021-08-13 21:12:50",196.21.159.220,"Mozilla/5.0 (Windows NT 10.0; Win64; x64) AppleWebKit/537.36 (KHTML, like Gecko) Chrome/92.0.4515.131 Safari/537.36",WebKit,Chrome,92.0.4515.131,Windows,10.0,5f461dd6c139dd6b46c7596cbd57cd79
193,1,"""","""","""","""","""",sampler,92,1022997,0.0-6.0-86.0,"""","""","""","""","""","""","""","""","""","""","""","2021-08-13 21:12:50",196.21.159.220,"Mozilla/5.0 (Windows NT 10.0; Win64; x64) AppleWebKit/537.36 (KHTML, like Gecko) Chrome/92.0.4515.131 Safari/537.36",WebKit,Chrome,92.0.4515.131,Windows,10.0,5f461dd6c139dd6b46c7596cbd57cd79
193,1,"""","""","""","""","""",sampler,93,1022997,0.0-6.0-87.0,"""","""","""","""","""","""","""","""","""","""","""","2021-08-13 21:12:50",196.21.159.220,"Mozilla/5.0 (Windows NT 10.0; Win64; x64) AppleWebKit/537.36 (KHTML, like Gecko) Chrome/92.0.4515.131 Safari/537.36",WebKit,Chrome,92.0.4515.131,Windows,10.0,5f461dd6c139dd6b46c7596cbd57cd79
193,1,"""","""","""","""","""",sampler,94,1022997,0.0-6.0-88.0,"""","""","""","""","""","""","""","""","""","""","""","2021-08-13 21:12:50",196.21.159.220,"Mozilla/5.0 (Windows NT 10.0; Win64; x64) AppleWebKit/537.36 (KHTML, like Gecko) Chrome/92.0.4515.131 Safari/537.36",WebKit,Chrome,92.0.4515.131,Windows,10.0,5f461dd6c139dd6b46c7596cbd57cd79
193,1,"""","""","""","""","""",sampler,95,1022998,0.0-6.0-89.0,"""","""","""","""","""","""","""","""","""","""","""","2021-08-13 21:12:50",196.21.159.220,"Mozilla/5.0 (Windows NT 10.0; Win64; x64) AppleWebKit/537.36 (KHTML, like Gecko) Chrome/92.0.4515.131 Safari/537.36",WebKit,Chrome,92.0.4515.131,Windows,10.0,5f461dd6c139dd6b46c7596cbd57cd79
193,1,"""","""","""","""","""",sampler,96,1022998,0.0-6.0-90.0,"""","""","""","""","""","""","""","""","""","""","""","2021-08-13 21:12:50",196.21.159.220,"Mozilla/5.0 (Windows NT 10.0; Win64; x64) AppleWebKit/537.36 (KHTML, like Gecko) Chrome/92.0.4515.131 Safari/537.36",WebKit,Chrome,92.0.4515.131,Windows,10.0,5f461dd6c139dd6b46c7596cbd57cd79
193,1,"""","""","""","""","""",sampler,97,1022999,0.0-6.0-91.0,"""","""","""","""","""","""","""","""","""","""","""","2021-08-13 21:12:50",196.21.159.220,"Mozilla/5.0 (Windows NT 10.0; Win64; x64) AppleWebKit/537.36 (KHTML, like Gecko) Chrome/92.0.4515.131 Safari/537.36",WebKit,Chrome,92.0.4515.131,Windows,10.0,5f461dd6c139dd6b46c7596cbd57cd79
193,1,"""","""","""","""","""",sampler,98,1023000,0.0-6.0-92.0,"""","""","""","""","""","""","""","""","""","""","""","2021-08-13 21:12:50",196.21.159.220,"Mozilla/5.0 (Windows NT 10.0; Win64; x64) AppleWebKit/537.36 (KHTML, like Gecko) Chrome/92.0.4515.131 Safari/537.36",WebKit,Chrome,92.0.4515.131,Windows,10.0,5f461dd6c139dd6b46c7596cbd57cd79
193,1,"""","""","""","""","""",sampler,99,1023000,0.0-6.0-93.0,"""","""","""","""","""","""","""","""","""","""","""","2021-08-13 21:12:50",196.21.159.220,"Mozilla/5.0 (Windows NT 10.0; Win64; x64) AppleWebKit/537.36 (KHTML, like Gecko) Chrome/92.0.4515.131 Safari/537.36",WebKit,Chrome,92.0.4515.131,Windows,10.0,5f461dd6c139dd6b46c7596cbd57cd79
193,1,"""","""","""","""","""",sampler,100,1023001,0.0-6.0-94.0,"""","""","""","""","""","""","""","""","""","""","""","2021-08-13 21:12:50",196.21.159.220,"Mozilla/5.0 (Windows NT 10.0; Win64; x64) AppleWebKit/537.36 (KHTML, like Gecko) Chrome/92.0.4515.131 Safari/537.36",WebKit,Chrome,92.0.4515.131,Windows,10.0,5f461dd6c139dd6b46c7596cbd57cd79
193,1,"""","""","""","""","""",sampler,101,1023001,0.0-6.0-95.0,"""","""","""","""","""","""","""","""","""","""","""","2021-08-13 21:12:50",196.21.159.220,"Mozilla/5.0 (Windows NT 10.0; Win64; x64) AppleWebKit/537.36 (KHTML, like Gecko) Chrome/92.0.4515.131 Safari/537.36",WebKit,Chrome,92.0.4515.131,Windows,10.0,5f461dd6c139dd6b46c7596cbd57cd79
193,1,"""","""","""","""","""",sampler,102,1023002,0.0-6.0-96.0,"""","""","""","""","""","""","""","""","""","""","""","2021-08-13 21:12:50",196.21.159.220,"Mozilla/5.0 (Windows NT 10.0; Win64; x64) AppleWebKit/537.36 (KHTML, like Gecko) Chrome/92.0.4515.131 Safari/537.36",WebKit,Chrome,92.0.4515.131,Windows,10.0,5f461dd6c139dd6b46c7596cbd57cd79
193,1,"""","""","""","""","""",sampler,103,1023002,0.0-6.0-97.0,"""","""","""","""","""","""","""","""","""","""","""","2021-08-13 21:12:50",196.21.159.220,"Mozilla/5.0 (Windows NT 10.0; Win64; x64) AppleWebKit/537.36 (KHTML, like Gecko) Chrome/92.0.4515.131 Safari/537.36",WebKit,Chrome,92.0.4515.131,Windows,10.0,5f461dd6c139dd6b46c7596cbd57cd79
193,1,"""","""","""","""","""",sampler,104,1023003,0.0-6.0-98.0,"""","""","""","""","""","""","""","""","""","""","""","2021-08-13 21:12:50",196.21.159.220,"Mozilla/5.0 (Windows NT 10.0; Win64; x64) AppleWebKit/537.36 (KHTML, like Gecko) Chrome/92.0.4515.131 Safari/537.36",WebKit,Chrome,92.0.4515.131,Windows,10.0,5f461dd6c139dd6b46c7596cbd57cd79
193,1,"""","""","""","""","""",sampler,105,1023005,0.0-6.0-99.0,"""","""","""","""","""","""","""","""","""","""","""","2021-08-13 21:12:50",196.21.159.220,"Mozilla/5.0 (Windows NT 10.0; Win64; x64) AppleWebKit/537.36 (KHTML, like Gecko) Chrome/92.0.4515.131 Safari/537.36",WebKit,Chrome,92.0.4515.131,Windows,10.0,5f461dd6c139dd6b46c7596cbd57cd79
193,1,"""","""","""","""","""",sampler,106,1023006,0.0-6.0-100.0,"""","""","""","""","""","""","""","""","""","""","""","2021-08-13 21:12:50",196.21.159.220,"Mozilla/5.0 (Windows NT 10.0; Win64; x64) AppleWebKit/537.36 (KHTML, like Gecko) Chrome/92.0.4515.131 Safari/537.36",WebKit,Chrome,92.0.4515.131,Windows,10.0,5f461dd6c139dd6b46c7596cbd57cd79
193,1,"""","""","""","""","""",sampler,107,1023007,0.0-6.0-101.0,"""","""","""","""","""","""","""","""","""","""","""","2021-08-13 21:12:50",196.21.159.220,"Mozilla/5.0 (Windows NT 10.0; Win64; x64) AppleWebKit/537.36 (KHTML, like Gecko) Chrome/92.0.4515.131 Safari/537.36",WebKit,Chrome,92.0.4515.131,Windows,10.0,5f461dd6c139dd6b46c7596cbd57cd79
193,1,"""","""","""","""","""",sampler,108,1023008,0.0-6.0-102.0,"""","""","""","""","""","""","""","""","""","""","""","2021-08-13 21:12:50",196.21.159.220,"Mozilla/5.0 (Windows NT 10.0; Win64; x64) AppleWebKit/537.36 (KHTML, like Gecko) Chrome/92.0.4515.131 Safari/537.36",WebKit,Chrome,92.0.4515.131,Windows,10.0,5f461dd6c139dd6b46c7596cbd57cd79
193,1,"""","""","""","""","""",sampler,109,1023008,0.0-6.0-103.0,"""","""","""","""","""","""","""","""","""","""","""","2021-08-13 21:12:50",196.21.159.220,"Mozilla/5.0 (Windows NT 10.0; Win64; x64) AppleWebKit/537.36 (KHTML, like Gecko) Chrome/92.0.4515.131 Safari/537.36",WebKit,Chrome,92.0.4515.131,Windows,10.0,5f461dd6c139dd6b46c7596cbd57cd79
193,1,"""","""","""","""","""",sampler,110,1023009,0.0-6.0-104.0,"""","""","""","""","""","""","""","""","""","""","""","2021-08-13 21:12:50",196.21.159.220,"Mozilla/5.0 (Windows NT 10.0; Win64; x64) AppleWebKit/537.36 (KHTML, like Gecko) Chrome/92.0.4515.131 Safari/537.36",WebKit,Chrome,92.0.4515.131,Windows,10.0,5f461dd6c139dd6b46c7596cbd57cd79
193,1,"""","""","""","""","""",sampler,111,1023010,0.0-6.0-105.0,"""","""","""","""","""","""","""","""","""","""","""","2021-08-13 21:12:50",196.21.159.220,"Mozilla/5.0 (Windows NT 10.0; Win64; x64) AppleWebKit/537.36 (KHTML, like Gecko) Chrome/92.0.4515.131 Safari/537.36",WebKit,Chrome,92.0.4515.131,Windows,10.0,5f461dd6c139dd6b46c7596cbd57cd79
193,1,"""","""","""","""","""",sampler,112,1023011,0.0-6.0-106.0,"""","""","""","""","""","""","""","""","""","""","""","2021-08-13 21:12:50",196.21.159.220,"Mozilla/5.0 (Windows NT 10.0; Win64; x64) AppleWebKit/537.36 (KHTML, like Gecko) Chrome/92.0.4515.131 Safari/537.36",WebKit,Chrome,92.0.4515.131,Windows,10.0,5f461dd6c139dd6b46c7596cbd57cd79
193,1,"""","""","""","""","""",sampler,113,1023011,0.0-6.0-107.0,"""","""","""","""","""","""","""","""","""","""","""","2021-08-13 21:12:50",196.21.159.220,"Mozilla/5.0 (Windows NT 10.0; Win64; x64) AppleWebKit/537.36 (KHTML, like Gecko) Chrome/92.0.4515.131 Safari/537.36",WebKit,Chrome,92.0.4515.131,Windows,10.0,5f461dd6c139dd6b46c7596cbd57cd79
193,1,"""","""","""","""","""",sampler,114,1023012,0.0-6.0-108.0,"""","""","""","""","""","""","""","""","""","""","""","2021-08-13 21:12:50",196.21.159.220,"Mozilla/5.0 (Windows NT 10.0; Win64; x64) AppleWebKit/537.36 (KHTML, like Gecko) Chrome/92.0.4515.131 Safari/537.36",WebKit,Chrome,92.0.4515.131,Windows,10.0,5f461dd6c139dd6b46c7596cbd57cd79
193,1,"""","""","""","""","""",sampler,115,1023012,0.0-6.0-109.0,"""","""","""","""","""","""","""","""","""","""","""","2021-08-13 21:12:50",196.21.159.220,"Mozilla/5.0 (Windows NT 10.0; Win64; x64) AppleWebKit/537.36 (KHTML, like Gecko) Chrome/92.0.4515.131 Safari/537.36",WebKit,Chrome,92.0.4515.131,Windows,10.0,5f461dd6c139dd6b46c7596cbd57cd79
193,1,"""","""","""","""","""",sampler,116,1023013,0.0-6.0-110.0,"""","""","""","""","""","""","""","""","""","""","""","2021-08-13 21:12:50",196.21.159.220,"Mozilla/5.0 (Windows NT 10.0; Win64; x64) AppleWebKit/537.36 (KHTML, like Gecko) Chrome/92.0.4515.131 Safari/537.36",WebKit,Chrome,92.0.4515.131,Windows,10.0,5f461dd6c139dd6b46c7596cbd57cd79
193,1,"""","""","""","""","""",sampler,117,1023013,0.0-6.0-111.0,"""","""","""","""","""","""","""","""","""","""","""","2021-08-13 21:12:50",196.21.159.220,"Mozilla/5.0 (Windows NT 10.0; Win64; x64) AppleWebKit/537.36 (KHTML, like Gecko) Chrome/92.0.4515.131 Safari/537.36",WebKit,Chrome,92.0.4515.131,Windows,10.0,5f461dd6c139dd6b46c7596cbd57cd79
193,1,"""","""","""","""","""",sampler,118,1023016,0.0-6.0-112.0,"""","""","""","""","""","""","""","""","""","""","""","2021-08-13 21:12:50",196.21.159.220,"Mozilla/5.0 (Windows NT 10.0; Win64; x64) AppleWebKit/537.36 (KHTML, like Gecko) Chrome/92.0.4515.131 Safari/537.36",WebKit,Chrome,92.0.4515.131,Windows,10.0,5f461dd6c139dd6b46c7596cbd57cd79
193,1,"""","""","""","""","""",sampler,119,1023017,0.0-6.0-113.0,"""","""","""","""","""","""","""","""","""","""","""","2021-08-13 21:12:50",196.21.159.220,"Mozilla/5.0 (Windows NT 10.0; Win64; x64) AppleWebKit/537.36 (KHTML, like Gecko) Chrome/92.0.4515.131 Safari/537.36",WebKit,Chrome,92.0.4515.131,Windows,10.0,5f461dd6c139dd6b46c7596cbd57cd79
193,1,"""","""","""","""","""",sampler,120,1023018,0.0-6.0-114.0,"""","""","""","""","""","""","""","""","""","""","""","2021-08-13 21:12:50",196.21.159.220,"Mozilla/5.0 (Windows NT 10.0; Win64; x64) AppleWebKit/537.36 (KHTML, like Gecko) Chrome/92.0.4515.131 Safari/537.36",WebKit,Chrome,92.0.4515.131,Windows,10.0,5f461dd6c139dd6b46c7596cbd57cd79
193,1,"""","""","""","""","""",sampler,121,1023019,0.0-6.0-115.0,"""","""","""","""","""","""","""","""","""","""","""","2021-08-13 21:12:50",196.21.159.220,"Mozilla/5.0 (Windows NT 10.0; Win64; x64) AppleWebKit/537.36 (KHTML, like Gecko) Chrome/92.0.4515.131 Safari/537.36",WebKit,Chrome,92.0.4515.131,Windows,10.0,5f461dd6c139dd6b46c7596cbd57cd79
193,1,"""","""","""","""","""",sampler,122,1023019,0.0-6.0-116.0,"""","""","""","""","""","""","""","""","""","""","""","2021-08-13 21:12:50",196.21.159.220,"Mozilla/5.0 (Windows NT 10.0; Win64; x64) AppleWebKit/537.36 (KHTML, like Gecko) Chrome/92.0.4515.131 Safari/537.36",WebKit,Chrome,92.0.4515.131,Windows,10.0,5f461dd6c139dd6b46c7596cbd57cd79
193,1,"""","""","""","""","""",sampler,123,1023020,0.0-6.0-117.0,"""","""","""","""","""","""","""","""","""","""","""","2021-08-13 21:12:50",196.21.159.220,"Mozilla/5.0 (Windows NT 10.0; Win64; x64) AppleWebKit/537.36 (KHTML, like Gecko) Chrome/92.0.4515.131 Safari/537.36",WebKit,Chrome,92.0.4515.131,Windows,10.0,5f461dd6c139dd6b46c7596cbd57cd79
193,1,"""","""","""","""","""",sampler,124,1023021,0.0-6.0-118.0,"""","""","""","""","""","""","""","""","""","""","""","2021-08-13 21:12:50",196.21.159.220,"Mozilla/5.0 (Windows NT 10.0; Win64; x64) AppleWebKit/537.36 (KHTML, like Gecko) Chrome/92.0.4515.131 Safari/537.36",WebKit,Chrome,92.0.4515.131,Windows,10.0,5f461dd6c139dd6b46c7596cbd57cd79
193,1,"""","""","""","""","""",sampler,125,1023022,0.0-6.0-119.0,"""","""","""","""","""","""","""","""","""","""","""","2021-08-13 21:12:50",196.21.159.220,"Mozilla/5.0 (Windows NT 10.0; Win64; x64) AppleWebKit/537.36 (KHTML, like Gecko) Chrome/92.0.4515.131 Safari/537.36",WebKit,Chrome,92.0.4515.131,Windows,10.0,5f461dd6c139dd6b46c7596cbd57cd79
193,1,"""","""","""","""","""",sampler,126,1023023,0.0-6.0-120.0,"""","""","""","""","""","""","""","""","""","""","""","2021-08-13 21:12:50",196.21.159.220,"Mozilla/5.0 (Windows NT 10.0; Win64; x64) AppleWebKit/537.36 (KHTML, like Gecko) Chrome/92.0.4515.131 Safari/537.36",WebKit,Chrome,92.0.4515.131,Windows,10.0,5f461dd6c139dd6b46c7596cbd57cd79
193,1,"""","""","""","""","""",sampler,127,1023023,0.0-6.0-121.0,"""","""","""","""","""","""","""","""","""","""","""","2021-08-13 21:12:50",196.21.159.220,"Mozilla/5.0 (Windows NT 10.0; Win64; x64) AppleWebKit/537.36 (KHTML, like Gecko) Chrome/92.0.4515.131 Safari/537.36",WebKit,Chrome,92.0.4515.131,Windows,10.0,5f461dd6c139dd6b46c7596cbd57cd79
193,1,"""","""","""","""","""",sampler,128,1023024,0.0-6.0-122.0,"""","""","""","""","""","""","""","""","""","""","""","2021-08-13 21:12:50",196.21.159.220,"Mozilla/5.0 (Windows NT 10.0; Win64; x64) AppleWebKit/537.36 (KHTML, like Gecko) Chrome/92.0.4515.131 Safari/537.36",WebKit,Chrome,92.0.4515.131,Windows,10.0,5f461dd6c139dd6b46c7596cbd57cd79
193,1,"""","""","""","""","""",sampler,129,1023024,0.0-6.0-123.0,"""","""","""","""","""","""","""","""","""","""","""","2021-08-13 21:12:50",196.21.159.220,"Mozilla/5.0 (Windows NT 10.0; Win64; x64) AppleWebKit/537.36 (KHTML, like Gecko) Chrome/92.0.4515.131 Safari/537.36",WebKit,Chrome,92.0.4515.131,Windows,10.0,5f461dd6c139dd6b46c7596cbd57cd79
193,1,"""","""","""","""","""",sampler,130,1023025,0.0-6.0-124.0,"""","""","""","""","""","""","""","""","""","""","""","2021-08-13 21:12:50",196.21.159.220,"Mozilla/5.0 (Windows NT 10.0; Win64; x64) AppleWebKit/537.36 (KHTML, like Gecko) Chrome/92.0.4515.131 Safari/537.36",WebKit,Chrome,92.0.4515.131,Windows,10.0,5f461dd6c139dd6b46c7596cbd57cd79
193,1,"""","""","""","""","""",sampler,131,1023027,0.0-6.0-125.0,"""","""","""","""","""","""","""","""","""","""","""","2021-08-13 21:12:50",196.21.159.220,"Mozilla/5.0 (Windows NT 10.0; Win64; x64) AppleWebKit/537.36 (KHTML, like Gecko) Chrome/92.0.4515.131 Safari/537.36",WebKit,Chrome,92.0.4515.131,Windows,10.0,5f461dd6c139dd6b46c7596cbd57cd79
193,1,"""","""","""","""","""",sampler,132,1023028,0.0-6.0-126.0,"""","""","""","""","""","""","""","""","""","""","""","2021-08-13 21:12:50",196.21.159.220,"Mozilla/5.0 (Windows NT 10.0; Win64; x64) AppleWebKit/537.36 (KHTML, like Gecko) Chrome/92.0.4515.131 Safari/537.36",WebKit,Chrome,92.0.4515.131,Windows,10.0,5f461dd6c139dd6b46c7596cbd57cd79
193,1,"""","""","""","""","""",sampler,133,1023028,0.0-6.0-127.0,"""","""","""","""","""","""","""","""","""","""","""","2021-08-13 21:12:50",196.21.159.220,"Mozilla/5.0 (Windows NT 10.0; Win64; x64) AppleWebKit/537.36 (KHTML, like Gecko) Chrome/92.0.4515.131 Safari/537.36",WebKit,Chrome,92.0.4515.131,Windows,10.0,5f461dd6c139dd6b46c7596cbd57cd79
193,1,"""","""","""","""","""",sampler,134,1023029,0.0-6.0-128.0,"""","""","""","""","""","""","""","""","""","""","""","2021-08-13 21:12:50",196.21.159.220,"Mozilla/5.0 (Windows NT 10.0; Win64; x64) AppleWebKit/537.36 (KHTML, like Gecko) Chrome/92.0.4515.131 Safari/537.36",WebKit,Chrome,92.0.4515.131,Windows,10.0,5f461dd6c139dd6b46c7596cbd57cd79
193,1,"""","""","""","""","""",sampler,135,1023030,0.0-6.0-129.0,"""","""","""","""","""","""","""","""","""","""","""","2021-08-13 21:12:50",196.21.159.220,"Mozilla/5.0 (Windows NT 10.0; Win64; x64) AppleWebKit/537.36 (KHTML, like Gecko) Chrome/92.0.4515.131 Safari/537.36",WebKit,Chrome,92.0.4515.131,Windows,10.0,5f461dd6c139dd6b46c7596cbd57cd79
193,1,"""","""","""","""","""",sampler,136,1023031,0.0-6.0-130.0,"""","""","""","""","""","""","""","""","""","""","""","2021-08-13 21:12:50",196.21.159.220,"Mozilla/5.0 (Windows NT 10.0; Win64; x64) AppleWebKit/537.36 (KHTML, like Gecko) Chrome/92.0.4515.131 Safari/537.36",WebKit,Chrome,92.0.4515.131,Windows,10.0,5f461dd6c139dd6b46c7596cbd57cd79
193,1,"""","""","""","""","""",sampler,137,1023032,0.0-6.0-131.0,"""","""","""","""","""","""","""","""","""","""","""","2021-08-13 21:12:50",196.21.159.220,"Mozilla/5.0 (Windows NT 10.0; Win64; x64) AppleWebKit/537.36 (KHTML, like Gecko) Chrome/92.0.4515.131 Safari/537.36",WebKit,Chrome,92.0.4515.131,Windows,10.0,5f461dd6c139dd6b46c7596cbd57cd79
193,1,"""","""","""","""","""",sampler,138,1023032,0.0-6.0-132.0,"""","""","""","""","""","""","""","""","""","""","""","2021-08-13 21:12:50",196.21.159.220,"Mozilla/5.0 (Windows NT 10.0; Win64; x64) AppleWebKit/537.36 (KHTML, like Gecko) Chrome/92.0.4515.131 Safari/537.36",WebKit,Chrome,92.0.4515.131,Windows,10.0,5f461dd6c139dd6b46c7596cbd57cd79
193,1,"""","""","""","""","""",sampler,139,1023033,0.0-6.0-133.0,"""","""","""","""","""","""","""","""","""","""","""","2021-08-13 21:12:50",196.21.159.220,"Mozilla/5.0 (Windows NT 10.0; Win64; x64) AppleWebKit/537.36 (KHTML, like Gecko) Chrome/92.0.4515.131 Safari/537.36",WebKit,Chrome,92.0.4515.131,Windows,10.0,5f461dd6c139dd6b46c7596cbd57cd79
193,1,"""","""","""","""","""",sampler,140,1023033,0.0-6.0-134.0,"""","""","""","""","""","""","""","""","""","""","""","2021-08-13 21:12:50",196.21.159.220,"Mozilla/5.0 (Windows NT 10.0; Win64; x64) AppleWebKit/537.36 (KHTML, like Gecko) Chrome/92.0.4515.131 Safari/537.36",WebKit,Chrome,92.0.4515.131,Windows,10.0,5f461dd6c139dd6b46c7596cbd57cd79
193,1,"""","""","""","""","""",sampler,141,1023034,0.0-6.0-135.0,"""","""","""","""","""","""","""","""","""","""","""","2021-08-13 21:12:50",196.21.159.220,"Mozilla/5.0 (Windows NT 10.0; Win64; x64) AppleWebKit/537.36 (KHTML, like Gecko) Chrome/92.0.4515.131 Safari/537.36",WebKit,Chrome,92.0.4515.131,Windows,10.0,5f461dd6c139dd6b46c7596cbd57cd79
193,1,"""","""","""","""","""",sampler,142,1023035,0.0-6.0-136.0,"""","""","""","""","""","""","""","""","""","""","""","2021-08-13 21:12:50",196.21.159.220,"Mozilla/5.0 (Windows NT 10.0; Win64; x64) AppleWebKit/537.36 (KHTML, like Gecko) Chrome/92.0.4515.131 Safari/537.36",WebKit,Chrome,92.0.4515.131,Windows,10.0,5f461dd6c139dd6b46c7596cbd57cd79
193,1,"""","""","""","""","""",sampler,143,1023035,0.0-6.0-137.0,"""","""","""","""","""","""","""","""","""","""","""","2021-08-13 21:12:50",196.21.159.220,"Mozilla/5.0 (Windows NT 10.0; Win64; x64) AppleWebKit/537.36 (KHTML, like Gecko) Chrome/92.0.4515.131 Safari/537.36",WebKit,Chrome,92.0.4515.131,Windows,10.0,5f461dd6c139dd6b46c7596cbd57cd79
193,1,"""","""","""","""","""",sampler,144,1023037,0.0-6.0-138.0,"""","""","""","""","""","""","""","""","""","""","""","2021-08-13 21:12:50",196.21.159.220,"Mozilla/5.0 (Windows NT 10.0; Win64; x64) AppleWebKit/537.36 (KHTML, like Gecko) Chrome/92.0.4515.131 Safari/537.36",WebKit,Chrome,92.0.4515.131,Windows,10.0,5f461dd6c139dd6b46c7596cbd57cd79
193,1,"""","""","""","""","""",sampler,145,1023038,0.0-6.0-139.0,"""","""","""","""","""","""","""","""","""","""","""","2021-08-13 21:12:50",196.21.159.220,"Mozilla/5.0 (Windows NT 10.0; Win64; x64) AppleWebKit/537.36 (KHTML, like Gecko) Chrome/92.0.4515.131 Safari/537.36",WebKit,Chrome,92.0.4515.131,Windows,10.0,5f461dd6c139dd6b46c7596cbd57cd79
193,1,"""","""","""","""","""",sampler,146,1023038,0.0-6.0-140.0,"""","""","""","""","""","""","""","""","""","""","""","2021-08-13 21:12:50",196.21.159.220,"Mozilla/5.0 (Windows NT 10.0; Win64; x64) AppleWebKit/537.36 (KHTML, like Gecko) Chrome/92.0.4515.131 Safari/537.36",WebKit,Chrome,92.0.4515.131,Windows,10.0,5f461dd6c139dd6b46c7596cbd57cd79
193,1,"""","""","""","""","""",sampler,147,1023039,0.0-6.0-141.0,"""","""","""","""","""","""","""","""","""","""","""","2021-08-13 21:12:50",196.21.159.220,"Mozilla/5.0 (Windows NT 10.0; Win64; x64) AppleWebKit/537.36 (KHTML, like Gecko) Chrome/92.0.4515.131 Safari/537.36",WebKit,Chrome,92.0.4515.131,Windows,10.0,5f461dd6c139dd6b46c7596cbd57cd79
193,1,"""","""","""","""","""",sampler,148,1023039,0.0-6.0-142.0,"""","""","""","""","""","""","""","""","""","""","""","2021-08-13 21:12:50",196.21.159.220,"Mozilla/5.0 (Windows NT 10.0; Win64; x64) AppleWebKit/537.36 (KHTML, like Gecko) Chrome/92.0.4515.131 Safari/537.36",WebKit,Chrome,92.0.4515.131,Windows,10.0,5f461dd6c139dd6b46c7596cbd57cd79
193,1,"""","""","""","""","""",sampler,149,1023040,0.0-6.0-143.0,"""","""","""","""","""","""","""","""","""","""","""","2021-08-13 21:12:50",196.21.159.220,"Mozilla/5.0 (Windows NT 10.0; Win64; x64) AppleWebKit/537.36 (KHTML, like Gecko) Chrome/92.0.4515.131 Safari/537.36",WebKit,Chrome,92.0.4515.131,Windows,10.0,5f461dd6c139dd6b46c7596cbd57cd79
193,1,"""","""","""","""","""",sampler,150,1023040,0.0-6.0-144.0,"""","""","""","""","""","""","""","""","""","""","""","2021-08-13 21:12:50",196.21.159.220,"Mozilla/5.0 (Windows NT 10.0; Win64; x64) AppleWebKit/537.36 (KHTML, like Gecko) Chrome/92.0.4515.131 Safari/537.36",WebKit,Chrome,92.0.4515.131,Windows,10.0,5f461dd6c139dd6b46c7596cbd57cd79
193,1,"""","""","""","""","""",sampler,151,1023041,0.0-6.0-145.0,"""","""","""","""","""","""","""","""","""","""","""","2021-08-13 21:12:50",196.21.159.220,"Mozilla/5.0 (Windows NT 10.0; Win64; x64) AppleWebKit/537.36 (KHTML, like Gecko) Chrome/92.0.4515.131 Safari/537.36",WebKit,Chrome,92.0.4515.131,Windows,10.0,5f461dd6c139dd6b46c7596cbd57cd79
193,1,"""","""","""","""","""",sampler,152,1023041,0.0-6.0-146.0,"""","""","""","""","""","""","""","""","""","""","""","2021-08-13 21:12:50",196.21.159.220,"Mozilla/5.0 (Windows NT 10.0; Win64; x64) AppleWebKit/537.36 (KHTML, like Gecko) Chrome/92.0.4515.131 Safari/537.36",WebKit,Chrome,92.0.4515.131,Windows,10.0,5f461dd6c139dd6b46c7596cbd57cd79
193,1,"""","""","""","""","""",sampler,153,1023042,0.0-6.0-147.0,"""","""","""","""","""","""","""","""","""","""","""","2021-08-13 21:12:50",196.21.159.220,"Mozilla/5.0 (Windows NT 10.0; Win64; x64) AppleWebKit/537.36 (KHTML, like Gecko) Chrome/92.0.4515.131 Safari/537.36",WebKit,Chrome,92.0.4515.131,Windows,10.0,5f461dd6c139dd6b46c7596cbd57cd79
193,1,"""","""","""","""","""",sampler,154,1023042,0.0-6.0-148.0,"""","""","""","""","""","""","""","""","""","""","""","2021-08-13 21:12:50",196.21.159.220,"Mozilla/5.0 (Windows NT 10.0; Win64; x64) AppleWebKit/537.36 (KHTML, like Gecko) Chrome/92.0.4515.131 Safari/537.36",WebKit,Chrome,92.0.4515.131,Windows,10.0,5f461dd6c139dd6b46c7596cbd57cd79
193,1,"""","""","""","""","""",sampler,155,1023043,0.0-6.0-149.0,"""","""","""","""","""","""","""","""","""","""","""","2021-08-13 21:12:50",196.21.159.220,"Mozilla/5.0 (Windows NT 10.0; Win64; x64) AppleWebKit/537.36 (KHTML, like Gecko) Chrome/92.0.4515.131 Safari/537.36",WebKit,Chrome,92.0.4515.131,Windows,10.0,5f461dd6c139dd6b46c7596cbd57cd79
193,1,"""","""","""","""","""",sampler,156,1023043,0.0-6.0-150.0,"""","""","""","""","""","""","""","""","""","""","""","2021-08-13 21:12:50",196.21.159.220,"Mozilla/5.0 (Windows NT 10.0; Win64; x64) AppleWebKit/537.36 (KHTML, like Gecko) Chrome/92.0.4515.131 Safari/537.36",WebKit,Chrome,92.0.4515.131,Windows,10.0,5f461dd6c139dd6b46c7596cbd57cd79
193,1,"""","""","""","""","""",sampler,157,1023044,0.0-6.0-151.0,"""","""","""","""","""","""","""","""","""","""","""","2021-08-13 21:12:50",196.21.159.220,"Mozilla/5.0 (Windows NT 10.0; Win64; x64) AppleWebKit/537.36 (KHTML, like Gecko) Chrome/92.0.4515.131 Safari/537.36",WebKit,Chrome,92.0.4515.131,Windows,10.0,5f461dd6c139dd6b46c7596cbd57cd79
193,1,"""","""","""","""","""",sampler,158,1023045,0.0-6.0-152.0,"""","""","""","""","""","""","""","""","""","""","""","2021-08-13 21:12:50",196.21.159.220,"Mozilla/5.0 (Windows NT 10.0; Win64; x64) AppleWebKit/537.36 (KHTML, like Gecko) Chrome/92.0.4515.131 Safari/537.36",WebKit,Chrome,92.0.4515.131,Windows,10.0,5f461dd6c139dd6b46c7596cbd57cd79
193,1,"""","""","""","""","""",sampler,159,1023045,0.0-6.0-153.0,"""","""","""","""","""","""","""","""","""","""","""","2021-08-13 21:12:50",196.21.159.220,"Mozilla/5.0 (Windows NT 10.0; Win64; x64) AppleWebKit/537.36 (KHTML, like Gecko) Chrome/92.0.4515.131 Safari/537.36",WebKit,Chrome,92.0.4515.131,Windows,10.0,5f461dd6c139dd6b46c7596cbd57cd79
193,1,"""","""","""","""","""",sampler,160,1023046,0.0-6.0-154.0,"""","""","""","""","""","""","""","""","""","""","""","2021-08-13 21:12:50",196.21.159.220,"Mozilla/5.0 (Windows NT 10.0; Win64; x64) AppleWebKit/537.36 (KHTML, like Gecko) Chrome/92.0.4515.131 Safari/537.36",WebKit,Chrome,92.0.4515.131,Windows,10.0,5f461dd6c139dd6b46c7596cbd57cd79
193,1,"""","""","""","""","""",sampler,161,1023046,0.0-6.0-155.0,"""","""","""","""","""","""","""","""","""","""","""","2021-08-13 21:12:50",196.21.159.220,"Mozilla/5.0 (Windows NT 10.0; Win64; x64) AppleWebKit/537.36 (KHTML, like Gecko) Chrome/92.0.4515.131 Safari/537.36",WebKit,Chrome,92.0.4515.131,Windows,10.0,5f461dd6c139dd6b46c7596cbd57cd79
193,1,"""","""","""","""","""",sampler,162,1023047,0.0-6.0-156.0,"""","""","""","""","""","""","""","""","""","""","""","2021-08-13 21:12:50",196.21.159.220,"Mozilla/5.0 (Windows NT 10.0; Win64; x64) AppleWebKit/537.36 (KHTML, like Gecko) Chrome/92.0.4515.131 Safari/537.36",WebKit,Chrome,92.0.4515.131,Windows,10.0,5f461dd6c139dd6b46c7596cbd57cd79
193,1,"""","""","""","""","""",sampler,163,1023048,0.0-6.0-157.0,"""","""","""","""","""","""","""","""","""","""","""","2021-08-13 21:12:50",196.21.159.220,"Mozilla/5.0 (Windows NT 10.0; Win64; x64) AppleWebKit/537.36 (KHTML, like Gecko) Chrome/92.0.4515.131 Safari/537.36",WebKit,Chrome,92.0.4515.131,Windows,10.0,5f461dd6c139dd6b46c7596cbd57cd79
193,1,"""","""","""","""","""",sampler,164,1023048,0.0-6.0-158.0,"""","""","""","""","""","""","""","""","""","""","""","2021-08-13 21:12:50",196.21.159.220,"Mozilla/5.0 (Windows NT 10.0; Win64; x64) AppleWebKit/537.36 (KHTML, like Gecko) Chrome/92.0.4515.131 Safari/537.36",WebKit,Chrome,92.0.4515.131,Windows,10.0,5f461dd6c139dd6b46c7596cbd57cd79
193,1,"""","""","""","""","""",sampler,165,1023049,0.0-6.0-159.0,"""","""","""","""","""","""","""","""","""","""","""","2021-08-13 21:12:50",196.21.159.220,"Mozilla/5.0 (Windows NT 10.0; Win64; x64) AppleWebKit/537.36 (KHTML, like Gecko) Chrome/92.0.4515.131 Safari/537.36",WebKit,Chrome,92.0.4515.131,Windows,10.0,5f461dd6c139dd6b46c7596cbd57cd79
193,1,"""","""","""","""","""",sampler,166,1023049,0.0-6.0-160.0,"""","""","""","""","""","""","""","""","""","""","""","2021-08-13 21:12:50",196.21.159.220,"Mozilla/5.0 (Windows NT 10.0; Win64; x64) AppleWebKit/537.36 (KHTML, like Gecko) Chrome/92.0.4515.131 Safari/537.36",WebKit,Chrome,92.0.4515.131,Windows,10.0,5f461dd6c139dd6b46c7596cbd57cd79
193,1,"""","""","""","""","""",sampler,167,1023050,0.0-6.0-161.0,"""","""","""","""","""","""","""","""","""","""","""","2021-08-13 21:12:50",196.21.159.220,"Mozilla/5.0 (Windows NT 10.0; Win64; x64) AppleWebKit/537.36 (KHTML, like Gecko) Chrome/92.0.4515.131 Safari/537.36",WebKit,Chrome,92.0.4515.131,Windows,10.0,5f461dd6c139dd6b46c7596cbd57cd79
193,1,"""","""","""","""","""",sampler,168,1023050,0.0-6.0-162.0,"""","""","""","""","""","""","""","""","""","""","""","2021-08-13 21:12:50",196.21.159.220,"Mozilla/5.0 (Windows NT 10.0; Win64; x64) AppleWebKit/537.36 (KHTML, like Gecko) Chrome/92.0.4515.131 Safari/537.36",WebKit,Chrome,92.0.4515.131,Windows,10.0,5f461dd6c139dd6b46c7596cbd57cd79
193,1,"""","""","""","""","""",sampler,169,1023051,0.0-6.0-163.0,"""","""","""","""","""","""","""","""","""","""","""","2021-08-13 21:12:50",196.21.159.220,"Mozilla/5.0 (Windows NT 10.0; Win64; x64) AppleWebKit/537.36 (KHTML, like Gecko) Chrome/92.0.4515.131 Safari/537.36",WebKit,Chrome,92.0.4515.131,Windows,10.0,5f461dd6c139dd6b46c7596cbd57cd79
193,1,"""","""","""","""","""",sampler,170,1023051,0.0-6.0-164.0,"""","""","""","""","""","""","""","""","""","""","""","2021-08-13 21:12:50",196.21.159.220,"Mozilla/5.0 (Windows NT 10.0; Win64; x64) AppleWebKit/537.36 (KHTML, like Gecko) Chrome/92.0.4515.131 Safari/537.36",WebKit,Chrome,92.0.4515.131,Windows,10.0,5f461dd6c139dd6b46c7596cbd57cd79
193,1,"""","""","""","""","""",sampler,171,1023052,0.0-6.0-165.0,"""","""","""","""","""","""","""","""","""","""","""","2021-08-13 21:12:50",196.21.159.220,"Mozilla/5.0 (Windows NT 10.0; Win64; x64) AppleWebKit/537.36 (KHTML, like Gecko) Chrome/92.0.4515.131 Safari/537.36",WebKit,Chrome,92.0.4515.131,Windows,10.0,5f461dd6c139dd6b46c7596cbd57cd79
193,1,"""","""","""","""","""",sampler,172,1023053,0.0-6.0-166.0,"""","""","""","""","""","""","""","""","""","""","""","2021-08-13 21:12:50",196.21.159.220,"Mozilla/5.0 (Windows NT 10.0; Win64; x64) AppleWebKit/537.36 (KHTML, like Gecko) Chrome/92.0.4515.131 Safari/537.36",WebKit,Chrome,92.0.4515.131,Windows,10.0,5f461dd6c139dd6b46c7596cbd57cd79
193,1,"""","""","""","""","""",sampler,173,1023054,0.0-6.0-167.0,"""","""","""","""","""","""","""","""","""","""","""","2021-08-13 21:12:50",196.21.159.220,"Mozilla/5.0 (Windows NT 10.0; Win64; x64) AppleWebKit/537.36 (KHTML, like Gecko) Chrome/92.0.4515.131 Safari/537.36",WebKit,Chrome,92.0.4515.131,Windows,10.0,5f461dd6c139dd6b46c7596cbd57cd79
193,1,"""","""","""","""","""",sampler,174,1023054,0.0-6.0-168.0,"""","""","""","""","""","""","""","""","""","""","""","2021-08-13 21:12:50",196.21.159.220,"Mozilla/5.0 (Windows NT 10.0; Win64; x64) AppleWebKit/537.36 (KHTML, like Gecko) Chrome/92.0.4515.131 Safari/537.36",WebKit,Chrome,92.0.4515.131,Windows,10.0,5f461dd6c139dd6b46c7596cbd57cd79
193,1,"""","""","""","""","""",sampler,175,1023055,0.0-6.0-169.0,"""","""","""","""","""","""","""","""","""","""","""","2021-08-13 21:12:50",196.21.159.220,"Mozilla/5.0 (Windows NT 10.0; Win64; x64) AppleWebKit/537.36 (KHTML, like Gecko) Chrome/92.0.4515.131 Safari/537.36",WebKit,Chrome,92.0.4515.131,Windows,10.0,5f461dd6c139dd6b46c7596cbd57cd79
193,1,"""","""","""","""","""",sampler,176,1023055,0.0-6.0-170.0,"""","""","""","""","""","""","""","""","""","""","""","2021-08-13 21:12:50",196.21.159.220,"Mozilla/5.0 (Windows NT 10.0; Win64; x64) AppleWebKit/537.36 (KHTML, like Gecko) Chrome/92.0.4515.131 Safari/537.36",WebKit,Chrome,92.0.4515.131,Windows,10.0,5f461dd6c139dd6b46c7596cbd57cd79
193,1,"""","""","""","""","""",sampler,177,1023056,0.0-6.0-171.0,"""","""","""","""","""","""","""","""","""","""","""","2021-08-13 21:12:50",196.21.159.220,"Mozilla/5.0 (Windows NT 10.0; Win64; x64) AppleWebKit/537.36 (KHTML, like Gecko) Chrome/92.0.4515.131 Safari/537.36",WebKit,Chrome,92.0.4515.131,Windows,10.0,5f461dd6c139dd6b46c7596cbd57cd79
193,1,"""","""","""","""","""",sampler,178,1023056,0.0-6.0-172.0,"""","""","""","""","""","""","""","""","""","""","""","2021-08-13 21:12:50",196.21.159.220,"Mozilla/5.0 (Windows NT 10.0; Win64; x64) AppleWebKit/537.36 (KHTML, like Gecko) Chrome/92.0.4515.131 Safari/537.36",WebKit,Chrome,92.0.4515.131,Windows,10.0,5f461dd6c139dd6b46c7596cbd57cd79
193,1,"""","""","""","""","""",sampler,179,1023057,0.0-6.0-173.0,"""","""","""","""","""","""","""","""","""","""","""","2021-08-13 21:12:50",196.21.159.220,"Mozilla/5.0 (Windows NT 10.0; Win64; x64) AppleWebKit/537.36 (KHTML, like Gecko) Chrome/92.0.4515.131 Safari/537.36",WebKit,Chrome,92.0.4515.131,Windows,10.0,5f461dd6c139dd6b46c7596cbd57cd79
193,1,"""","""","""","""","""",sampler,180,1023057,0.0-6.0-174.0,"""","""","""","""","""","""","""","""","""","""","""","2021-08-13 21:12:50",196.21.159.220,"Mozilla/5.0 (Windows NT 10.0; Win64; x64) AppleWebKit/537.36 (KHTML, like Gecko) Chrome/92.0.4515.131 Safari/537.36",WebKit,Chrome,92.0.4515.131,Windows,10.0,5f461dd6c139dd6b46c7596cbd57cd79
193,1,"""","""","""","""","""",sampler,181,1023058,0.0-6.0-175.0,"""","""","""","""","""","""","""","""","""","""","""","2021-08-13 21:12:50",196.21.159.220,"Mozilla/5.0 (Windows NT 10.0; Win64; x64) AppleWebKit/537.36 (KHTML, like Gecko) Chrome/92.0.4515.131 Safari/537.36",WebKit,Chrome,92.0.4515.131,Windows,10.0,5f461dd6c139dd6b46c7596cbd57cd79
193,1,"""","""","""","""","""",sampler,182,1023058,0.0-6.0-176.0,"""","""","""","""","""","""","""","""","""","""","""","2021-08-13 21:12:50",196.21.159.220,"Mozilla/5.0 (Windows NT 10.0; Win64; x64) AppleWebKit/537.36 (KHTML, like Gecko) Chrome/92.0.4515.131 Safari/537.36",WebKit,Chrome,92.0.4515.131,Windows,10.0,5f461dd6c139dd6b46c7596cbd57cd79
193,1,"""","""","""","""","""",sampler,183,1023059,0.0-6.0-177.0,"""","""","""","""","""","""","""","""","""","""","""","2021-08-13 21:12:50",196.21.159.220,"Mozilla/5.0 (Windows NT 10.0; Win64; x64) AppleWebKit/537.36 (KHTML, like Gecko) Chrome/92.0.4515.131 Safari/537.36",WebKit,Chrome,92.0.4515.131,Windows,10.0,5f461dd6c139dd6b46c7596cbd57cd79
193,1,"""","""","""","""","""",sampler,184,1023059,0.0-6.0-178.0,"""","""","""","""","""","""","""","""","""","""","""","2021-08-13 21:12:50",196.21.159.220,"Mozilla/5.0 (Windows NT 10.0; Win64; x64) AppleWebKit/537.36 (KHTML, like Gecko) Chrome/92.0.4515.131 Safari/537.36",WebKit,Chrome,92.0.4515.131,Windows,10.0,5f461dd6c139dd6b46c7596cbd57cd79
193,1,"""","""","""","""","""",sampler,185,1023060,0.0-6.0-179.0,"""","""","""","""","""","""","""","""","""","""","""","2021-08-13 21:12:50",196.21.159.220,"Mozilla/5.0 (Windows NT 10.0; Win64; x64) AppleWebKit/537.36 (KHTML, like Gecko) Chrome/92.0.4515.131 Safari/537.36",WebKit,Chrome,92.0.4515.131,Windows,10.0,5f461dd6c139dd6b46c7596cbd57cd79
193,1,"""","""","""","""","""",sampler,186,1023060,0.0-6.0-180.0,"""","""","""","""","""","""","""","""","""","""","""","2021-08-13 21:12:50",196.21.159.220,"Mozilla/5.0 (Windows NT 10.0; Win64; x64) AppleWebKit/537.36 (KHTML, like Gecko) Chrome/92.0.4515.131 Safari/537.36",WebKit,Chrome,92.0.4515.131,Windows,10.0,5f461dd6c139dd6b46c7596cbd57cd79
193,1,"""","""","""","""","""",sampler,187,1023061,0.0-6.0-181.0,"""","""","""","""","""","""","""","""","""","""","""","2021-08-13 21:12:50",196.21.159.220,"Mozilla/5.0 (Windows NT 10.0; Win64; x64) AppleWebKit/537.36 (KHTML, like Gecko) Chrome/92.0.4515.131 Safari/537.36",WebKit,Chrome,92.0.4515.131,Windows,10.0,5f461dd6c139dd6b46c7596cbd57cd79
193,1,"""","""","""","""","""",sampler,188,1023061,0.0-6.0-182.0,"""","""","""","""","""","""","""","""","""","""","""","2021-08-13 21:12:50",196.21.159.220,"Mozilla/5.0 (Windows NT 10.0; Win64; x64) AppleWebKit/537.36 (KHTML, like Gecko) Chrome/92.0.4515.131 Safari/537.36",WebKit,Chrome,92.0.4515.131,Windows,10.0,5f461dd6c139dd6b46c7596cbd57cd79
193,1,"""","""","""","""","""",sampler,189,1023062,0.0-6.0-183.0,"""","""","""","""","""","""","""","""","""","""","""","2021-08-13 21:12:50",196.21.159.220,"Mozilla/5.0 (Windows NT 10.0; Win64; x64) AppleWebKit/537.36 (KHTML, like Gecko) Chrome/92.0.4515.131 Safari/537.36",WebKit,Chrome,92.0.4515.131,Windows,10.0,5f461dd6c139dd6b46c7596cbd57cd79
193,1,"""","""","""","""","""",sampler,190,1023062,0.0-6.0-184.0,"""","""","""","""","""","""","""","""","""","""","""","2021-08-13 21:12:50",196.21.159.220,"Mozilla/5.0 (Windows NT 10.0; Win64; x64) AppleWebKit/537.36 (KHTML, like Gecko) Chrome/92.0.4515.131 Safari/537.36",WebKit,Chrome,92.0.4515.131,Windows,10.0,5f461dd6c139dd6b46c7596cbd57cd79
193,1,"""","""","""","""","""",sampler,191,1023063,0.0-6.0-185.0,"""","""","""","""","""","""","""","""","""","""","""","2021-08-13 21:12:50",196.21.159.220,"Mozilla/5.0 (Windows NT 10.0; Win64; x64) AppleWebKit/537.36 (KHTML, like Gecko) Chrome/92.0.4515.131 Safari/537.36",WebKit,Chrome,92.0.4515.131,Windows,10.0,5f461dd6c139dd6b46c7596cbd57cd79
193,1,"""","""","""","""","""",sampler,192,1023063,0.0-6.0-186.0,"""","""","""","""","""","""","""","""","""","""","""","2021-08-13 21:12:50",196.21.159.220,"Mozilla/5.0 (Windows NT 10.0; Win64; x64) AppleWebKit/537.36 (KHTML, like Gecko) Chrome/92.0.4515.131 Safari/537.36",WebKit,Chrome,92.0.4515.131,Windows,10.0,5f461dd6c139dd6b46c7596cbd57cd79
193,1,"""","""","""","""","""",sampler,193,1023064,0.0-6.0-187.0,"""","""","""","""","""","""","""","""","""","""","""","2021-08-13 21:12:50",196.21.159.220,"Mozilla/5.0 (Windows NT 10.0; Win64; x64) AppleWebKit/537.36 (KHTML, like Gecko) Chrome/92.0.4515.131 Safari/537.36",WebKit,Chrome,92.0.4515.131,Windows,10.0,5f461dd6c139dd6b46c7596cbd57cd79
193,1,"""","""","""","""","""",sampler,194,1023064,0.0-6.0-188.0,"""","""","""","""","""","""","""","""","""","""","""","2021-08-13 21:12:50",196.21.159.220,"Mozilla/5.0 (Windows NT 10.0; Win64; x64) AppleWebKit/537.36 (KHTML, like Gecko) Chrome/92.0.4515.131 Safari/537.36",WebKit,Chrome,92.0.4515.131,Windows,10.0,5f461dd6c139dd6b46c7596cbd57cd79
193,1,"""","""","""","""","""",sampler,195,1023065,0.0-6.0-189.0,"""","""","""","""","""","""","""","""","""","""","""","2021-08-13 21:12:50",196.21.159.220,"Mozilla/5.0 (Windows NT 10.0; Win64; x64) AppleWebKit/537.36 (KHTML, like Gecko) Chrome/92.0.4515.131 Safari/537.36",WebKit,Chrome,92.0.4515.131,Windows,10.0,5f461dd6c139dd6b46c7596cbd57cd79
193,1,"""","""","""","""","""",sampler,196,1023066,0.0-6.0-190.0,"""","""","""","""","""","""","""","""","""","""","""","2021-08-13 21:12:50",196.21.159.220,"Mozilla/5.0 (Windows NT 10.0; Win64; x64) AppleWebKit/537.36 (KHTML, like Gecko) Chrome/92.0.4515.131 Safari/537.36",WebKit,Chrome,92.0.4515.131,Windows,10.0,5f461dd6c139dd6b46c7596cbd57cd79
193,1,"""","""","""","""","""",sampler,197,1023066,0.0-6.0-191.0,"""","""","""","""","""","""","""","""","""","""","""","2021-08-13 21:12:50",196.21.159.220,"Mozilla/5.0 (Windows NT 10.0; Win64; x64) AppleWebKit/537.36 (KHTML, like Gecko) Chrome/92.0.4515.131 Safari/537.36",WebKit,Chrome,92.0.4515.131,Windows,10.0,5f461dd6c139dd6b46c7596cbd57cd79
193,1,"""","""","""","""","""",sampler,198,1023067,0.0-6.0-192.0,"""","""","""","""","""","""","""","""","""","""","""","2021-08-13 21:12:50",196.21.159.220,"Mozilla/5.0 (Windows NT 10.0; Win64; x64) AppleWebKit/537.36 (KHTML, like Gecko) Chrome/92.0.4515.131 Safari/537.36",WebKit,Chrome,92.0.4515.131,Windows,10.0,5f461dd6c139dd6b46c7596cbd57cd79
193,1,"""","""","""","""","""",sampler,199,1023067,0.0-6.0-193.0,"""","""","""","""","""","""","""","""","""","""","""","2021-08-13 21:12:50",196.21.159.220,"Mozilla/5.0 (Windows NT 10.0; Win64; x64) AppleWebKit/537.36 (KHTML, like Gecko) Chrome/92.0.4515.131 Safari/537.36",WebKit,Chrome,92.0.4515.131,Windows,10.0,5f461dd6c139dd6b46c7596cbd57cd79
193,1,"""","""","""","""","""",sampler,200,1023068,0.0-6.0-194.0,"""","""","""","""","""","""","""","""","""","""","""","2021-08-13 21:12:50",196.21.159.220,"Mozilla/5.0 (Windows NT 10.0; Win64; x64) AppleWebKit/537.36 (KHTML, like Gecko) Chrome/92.0.4515.131 Safari/537.36",WebKit,Chrome,92.0.4515.131,Windows,10.0,5f461dd6c139dd6b46c7596cbd57cd79
193,1,"""","""","""","""","""",sampler,201,1023069,0.0-6.0-195.0,"""","""","""","""","""","""","""","""","""","""","""","2021-08-13 21:12:50",196.21.159.220,"Mozilla/5.0 (Windows NT 10.0; Win64; x64) AppleWebKit/537.36 (KHTML, like Gecko) Chrome/92.0.4515.131 Safari/537.36",WebKit,Chrome,92.0.4515.131,Windows,10.0,5f461dd6c139dd6b46c7596cbd57cd79
193,1,"""","""","""","""","""",sampler,202,1023069,0.0-6.0-196.0,"""","""","""","""","""","""","""","""","""","""","""","2021-08-13 21:12:50",196.21.159.220,"Mozilla/5.0 (Windows NT 10.0; Win64; x64) AppleWebKit/537.36 (KHTML, like Gecko) Chrome/92.0.4515.131 Safari/537.36",WebKit,Chrome,92.0.4515.131,Windows,10.0,5f461dd6c139dd6b46c7596cbd57cd79
193,1,"""","""","""","""","""",sampler,203,1023070,0.0-6.0-197.0,"""","""","""","""","""","""","""","""","""","""","""","2021-08-13 21:12:50",196.21.159.220,"Mozilla/5.0 (Windows NT 10.0; Win64; x64) AppleWebKit/537.36 (KHTML, like Gecko) Chrome/92.0.4515.131 Safari/537.36",WebKit,Chrome,92.0.4515.131,Windows,10.0,5f461dd6c139dd6b46c7596cbd57cd79
193,1,"""","""","""","""","""",sampler,204,1023070,0.0-6.0-198.0,"""","""","""","""","""","""","""","""","""","""","""","2021-08-13 21:12:50",196.21.159.220,"Mozilla/5.0 (Windows NT 10.0; Win64; x64) AppleWebKit/537.36 (KHTML, like Gecko) Chrome/92.0.4515.131 Safari/537.36",WebKit,Chrome,92.0.4515.131,Windows,10.0,5f461dd6c139dd6b46c7596cbd57cd79
193,1,"""","""","""","""","""",sampler,205,1023071,0.0-6.0-199.0,"""","""","""","""","""","""","""","""","""","""","""","2021-08-13 21:12:50",196.21.159.220,"Mozilla/5.0 (Windows NT 10.0; Win64; x64) AppleWebKit/537.36 (KHTML, like Gecko) Chrome/92.0.4515.131 Safari/537.36",WebKit,Chrome,92.0.4515.131,Windows,10.0,5f461dd6c139dd6b46c7596cbd57cd79
193,1,"""","""","""","""","""",sampler,206,1023071,0.0-6.0-200.0,"""","""","""","""","""","""","""","""","""","""","""","2021-08-13 21:12:50",196.21.159.220,"Mozilla/5.0 (Windows NT 10.0; Win64; x64) AppleWebKit/537.36 (KHTML, like Gecko) Chrome/92.0.4515.131 Safari/537.36",WebKit,Chrome,92.0.4515.131,Windows,10.0,5f461dd6c139dd6b46c7596cbd57cd79
193,1,"""","""","""","""","""",sampler,207,1023072,0.0-6.0-201.0,"""","""","""","""","""","""","""","""","""","""","""","2021-08-13 21:12:50",196.21.159.220,"Mozilla/5.0 (Windows NT 10.0; Win64; x64) AppleWebKit/537.36 (KHTML, like Gecko) Chrome/92.0.4515.131 Safari/537.36",WebKit,Chrome,92.0.4515.131,Windows,10.0,5f461dd6c139dd6b46c7596cbd57cd79
193,1,"""","""","""","""","""",sampler,208,1023072,0.0-6.0-202.0,"""","""","""","""","""","""","""","""","""","""","""","2021-08-13 21:12:50",196.21.159.220,"Mozilla/5.0 (Windows NT 10.0; Win64; x64) AppleWebKit/537.36 (KHTML, like Gecko) Chrome/92.0.4515.131 Safari/537.36",WebKit,Chrome,92.0.4515.131,Windows,10.0,5f461dd6c139dd6b46c7596cbd57cd79
193,1,"""","""","""","""","""",sampler,209,1023073,0.0-6.0-203.0,"""","""","""","""","""","""","""","""","""","""","""","2021-08-13 21:12:50",196.21.159.220,"Mozilla/5.0 (Windows NT 10.0; Win64; x64) AppleWebKit/537.36 (KHTML, like Gecko) Chrome/92.0.4515.131 Safari/537.36",WebKit,Chrome,92.0.4515.131,Windows,10.0,5f461dd6c139dd6b46c7596cbd57cd79
193,1,"""","""","""","""","""",sampler,210,1023073,0.0-6.0-204.0,"""","""","""","""","""","""","""","""","""","""","""","2021-08-13 21:12:50",196.21.159.220,"Mozilla/5.0 (Windows NT 10.0; Win64; x64) AppleWebKit/537.36 (KHTML, like Gecko) Chrome/92.0.4515.131 Safari/537.36",WebKit,Chrome,92.0.4515.131,Windows,10.0,5f461dd6c139dd6b46c7596cbd57cd79
193,1,"""","""","""","""","""",sampler,211,1023074,0.0-6.0-205.0,"""","""","""","""","""","""","""","""","""","""","""","2021-08-13 21:12:50",196.21.159.220,"Mozilla/5.0 (Windows NT 10.0; Win64; x64) AppleWebKit/537.36 (KHTML, like Gecko) Chrome/92.0.4515.131 Safari/537.36",WebKit,Chrome,92.0.4515.131,Windows,10.0,5f461dd6c139dd6b46c7596cbd57cd79
193,1,"""","""","""","""","""",sampler,212,1023074,0.0-6.0-206.0,"""","""","""","""","""","""","""","""","""","""","""","2021-08-13 21:12:50",196.21.159.220,"Mozilla/5.0 (Windows NT 10.0; Win64; x64) AppleWebKit/537.36 (KHTML, like Gecko) Chrome/92.0.4515.131 Safari/537.36",WebKit,Chrome,92.0.4515.131,Windows,10.0,5f461dd6c139dd6b46c7596cbd57cd79
193,1,"""","""","""","""","""",sampler,213,1023075,0.0-6.0-207.0,"""","""","""","""","""","""","""","""","""","""","""","2021-08-13 21:12:50",196.21.159.220,"Mozilla/5.0 (Windows NT 10.0; Win64; x64) AppleWebKit/537.36 (KHTML, like Gecko) Chrome/92.0.4515.131 Safari/537.36",WebKit,Chrome,92.0.4515.131,Windows,10.0,5f461dd6c139dd6b46c7596cbd57cd79
193,1,"""","""","""","""","""",sampler,214,1023078,0.0-6.0-208.0,"""","""","""","""","""","""","""","""","""","""","""","2021-08-13 21:12:50",196.21.159.220,"Mozilla/5.0 (Windows NT 10.0; Win64; x64) AppleWebKit/537.36 (KHTML, like Gecko) Chrome/92.0.4515.131 Safari/537.36",WebKit,Chrome,92.0.4515.131,Windows,10.0,5f461dd6c139dd6b46c7596cbd57cd79
193,1,"""","""","""","""","""",sampler,215,1023079,0.0-6.0-209.0,"""","""","""","""","""","""","""","""","""","""","""","2021-08-13 21:12:50",196.21.159.220,"Mozilla/5.0 (Windows NT 10.0; Win64; x64) AppleWebKit/537.36 (KHTML, like Gecko) Chrome/92.0.4515.131 Safari/537.36",WebKit,Chrome,92.0.4515.131,Windows,10.0,5f461dd6c139dd6b46c7596cbd57cd79
193,1,"""","""","""","""","""",sampler,216,1023079,0.0-6.0-210.0,"""","""","""","""","""","""","""","""","""","""","""","2021-08-13 21:12:50",196.21.159.220,"Mozilla/5.0 (Windows NT 10.0; Win64; x64) AppleWebKit/537.36 (KHTML, like Gecko) Chrome/92.0.4515.131 Safari/537.36",WebKit,Chrome,92.0.4515.131,Windows,10.0,5f461dd6c139dd6b46c7596cbd57cd79
193,1,"""","""","""","""","""",sampler,217,1023080,0.0-6.0-211.0,"""","""","""","""","""","""","""","""","""","""","""","2021-08-13 21:12:50",196.21.159.220,"Mozilla/5.0 (Windows NT 10.0; Win64; x64) AppleWebKit/537.36 (KHTML, like Gecko) Chrome/92.0.4515.131 Safari/537.36",WebKit,Chrome,92.0.4515.131,Windows,10.0,5f461dd6c139dd6b46c7596cbd57cd79
193,1,"""","""","""","""","""",sampler,218,1023080,0.0-6.0-212.0,"""","""","""","""","""","""","""","""","""","""","""","2021-08-13 21:12:50",196.21.159.220,"Mozilla/5.0 (Windows NT 10.0; Win64; x64) AppleWebKit/537.36 (KHTML, like Gecko) Chrome/92.0.4515.131 Safari/537.36",WebKit,Chrome,92.0.4515.131,Windows,10.0,5f461dd6c139dd6b46c7596cbd57cd79
193,1,"""","""","""","""","""",sampler,219,1023081,0.0-6.0-213.0,"""","""","""","""","""","""","""","""","""","""","""","2021-08-13 21:12:50",196.21.159.220,"Mozilla/5.0 (Windows NT 10.0; Win64; x64) AppleWebKit/537.36 (KHTML, like Gecko) Chrome/92.0.4515.131 Safari/537.36",WebKit,Chrome,92.0.4515.131,Windows,10.0,5f461dd6c139dd6b46c7596cbd57cd79
193,1,"""","""","""","""","""",sampler,220,1023082,0.0-6.0-214.0,"""","""","""","""","""","""","""","""","""","""","""","2021-08-13 21:12:50",196.21.159.220,"Mozilla/5.0 (Windows NT 10.0; Win64; x64) AppleWebKit/537.36 (KHTML, like Gecko) Chrome/92.0.4515.131 Safari/537.36",WebKit,Chrome,92.0.4515.131,Windows,10.0,5f461dd6c139dd6b46c7596cbd57cd79
193,1,"""","""","""","""","""",sampler,221,1023082,0.0-6.0-215.0,"""","""","""","""","""","""","""","""","""","""","""","2021-08-13 21:12:50",196.21.159.220,"Mozilla/5.0 (Windows NT 10.0; Win64; x64) AppleWebKit/537.36 (KHTML, like Gecko) Chrome/92.0.4515.131 Safari/537.36",WebKit,Chrome,92.0.4515.131,Windows,10.0,5f461dd6c139dd6b46c7596cbd57cd79
193,1,"""","""","""","""","""",sampler,222,1023083,0.0-6.0-216.0,"""","""","""","""","""","""","""","""","""","""","""","2021-08-13 21:12:50",196.21.159.220,"Mozilla/5.0 (Windows NT 10.0; Win64; x64) AppleWebKit/537.36 (KHTML, like Gecko) Chrome/92.0.4515.131 Safari/537.36",WebKit,Chrome,92.0.4515.131,Windows,10.0,5f461dd6c139dd6b46c7596cbd57cd79
193,1,"""","""","""","""","""",sampler,223,1023083,0.0-6.0-217.0,"""","""","""","""","""","""","""","""","""","""","""","2021-08-13 21:12:50",196.21.159.220,"Mozilla/5.0 (Windows NT 10.0; Win64; x64) AppleWebKit/537.36 (KHTML, like Gecko) Chrome/92.0.4515.131 Safari/537.36",WebKit,Chrome,92.0.4515.131,Windows,10.0,5f461dd6c139dd6b46c7596cbd57cd79
193,1,"""","""","""","""","""",sampler,224,1023084,0.0-6.0-218.0,"""","""","""","""","""","""","""","""","""","""","""","2021-08-13 21:12:50",196.21.159.220,"Mozilla/5.0 (Windows NT 10.0; Win64; x64) AppleWebKit/537.36 (KHTML, like Gecko) Chrome/92.0.4515.131 Safari/537.36",WebKit,Chrome,92.0.4515.131,Windows,10.0,5f461dd6c139dd6b46c7596cbd57cd79
193,1,"""","""","""","""","""",sampler,225,1023085,0.0-6.0-219.0,"""","""","""","""","""","""","""","""","""","""","""","2021-08-13 21:12:50",196.21.159.220,"Mozilla/5.0 (Windows NT 10.0; Win64; x64) AppleWebKit/537.36 (KHTML, like Gecko) Chrome/92.0.4515.131 Safari/537.36",WebKit,Chrome,92.0.4515.131,Windows,10.0,5f461dd6c139dd6b46c7596cbd57cd79
193,1,"""","""","""","""","""",sampler,226,1023086,0.0-6.0-220.0,"""","""","""","""","""","""","""","""","""","""","""","2021-08-13 21:12:50",196.21.159.220,"Mozilla/5.0 (Windows NT 10.0; Win64; x64) AppleWebKit/537.36 (KHTML, like Gecko) Chrome/92.0.4515.131 Safari/537.36",WebKit,Chrome,92.0.4515.131,Windows,10.0,5f461dd6c139dd6b46c7596cbd57cd79
193,1,"""","""","""","""","""",sampler,227,1023086,0.0-6.0-221.0,"""","""","""","""","""","""","""","""","""","""","""","2021-08-13 21:12:50",196.21.159.220,"Mozilla/5.0 (Windows NT 10.0; Win64; x64) AppleWebKit/537.36 (KHTML, like Gecko) Chrome/92.0.4515.131 Safari/537.36",WebKit,Chrome,92.0.4515.131,Windows,10.0,5f461dd6c139dd6b46c7596cbd57cd79
193,1,"""","""","""","""","""",sampler,228,1023087,0.0-6.0-222.0,"""","""","""","""","""","""","""","""","""","""","""","2021-08-13 21:12:50",196.21.159.220,"Mozilla/5.0 (Windows NT 10.0; Win64; x64) AppleWebKit/537.36 (KHTML, like Gecko) Chrome/92.0.4515.131 Safari/537.36",WebKit,Chrome,92.0.4515.131,Windows,10.0,5f461dd6c139dd6b46c7596cbd57cd79
193,1,"""","""","""","""","""",sampler,229,1023087,0.0-6.0-223.0,"""","""","""","""","""","""","""","""","""","""","""","2021-08-13 21:12:50",196.21.159.220,"Mozilla/5.0 (Windows NT 10.0; Win64; x64) AppleWebKit/537.36 (KHTML, like Gecko) Chrome/92.0.4515.131 Safari/537.36",WebKit,Chrome,92.0.4515.131,Windows,10.0,5f461dd6c139dd6b46c7596cbd57cd79
193,1,"""","""","""","""","""",sampler,230,1023088,0.0-6.0-224.0,"""","""","""","""","""","""","""","""","""","""","""","2021-08-13 21:12:50",196.21.159.220,"Mozilla/5.0 (Windows NT 10.0; Win64; x64) AppleWebKit/537.36 (KHTML, like Gecko) Chrome/92.0.4515.131 Safari/537.36",WebKit,Chrome,92.0.4515.131,Windows,10.0,5f461dd6c139dd6b46c7596cbd57cd79
193,1,"""","""","""","""","""",sampler,231,1023088,0.0-6.0-225.0,"""","""","""","""","""","""","""","""","""","""","""","2021-08-13 21:12:50",196.21.159.220,"Mozilla/5.0 (Windows NT 10.0; Win64; x64) AppleWebKit/537.36 (KHTML, like Gecko) Chrome/92.0.4515.131 Safari/537.36",WebKit,Chrome,92.0.4515.131,Windows,10.0,5f461dd6c139dd6b46c7596cbd57cd79
193,1,"""","""","""","""","""",sampler,232,1023089,0.0-6.0-226.0,"""","""","""","""","""","""","""","""","""","""","""","2021-08-13 21:12:50",196.21.159.220,"Mozilla/5.0 (Windows NT 10.0; Win64; x64) AppleWebKit/537.36 (KHTML, like Gecko) Chrome/92.0.4515.131 Safari/537.36",WebKit,Chrome,92.0.4515.131,Windows,10.0,5f461dd6c139dd6b46c7596cbd57cd79
193,1,"""","""","""","""","""",sampler,233,1023090,0.0-6.0-227.0,"""","""","""","""","""","""","""","""","""","""","""","2021-08-13 21:12:50",196.21.159.220,"Mozilla/5.0 (Windows NT 10.0; Win64; x64) AppleWebKit/537.36 (KHTML, like Gecko) Chrome/92.0.4515.131 Safari/537.36",WebKit,Chrome,92.0.4515.131,Windows,10.0,5f461dd6c139dd6b46c7596cbd57cd79
193,1,"""","""","""","""","""",sampler,234,1023090,0.0-6.0-228.0,"""","""","""","""","""","""","""","""","""","""","""","2021-08-13 21:12:50",196.21.159.220,"Mozilla/5.0 (Windows NT 10.0; Win64; x64) AppleWebKit/537.36 (KHTML, like Gecko) Chrome/92.0.4515.131 Safari/537.36",WebKit,Chrome,92.0.4515.131,Windows,10.0,5f461dd6c139dd6b46c7596cbd57cd79
193,1,"""","""","""","""","""",sampler,235,1023091,0.0-6.0-229.0,"""","""","""","""","""","""","""","""","""","""","""","2021-08-13 21:12:50",196.21.159.220,"Mozilla/5.0 (Windows NT 10.0; Win64; x64) AppleWebKit/537.36 (KHTML, like Gecko) Chrome/92.0.4515.131 Safari/537.36",WebKit,Chrome,92.0.4515.131,Windows,10.0,5f461dd6c139dd6b46c7596cbd57cd79
193,1,"""","""","""","""","""",sampler,236,1023091,0.0-6.0-230.0,"""","""","""","""","""","""","""","""","""","""","""","2021-08-13 21:12:50",196.21.159.220,"Mozilla/5.0 (Windows NT 10.0; Win64; x64) AppleWebKit/537.36 (KHTML, like Gecko) Chrome/92.0.4515.131 Safari/537.36",WebKit,Chrome,92.0.4515.131,Windows,10.0,5f461dd6c139dd6b46c7596cbd57cd79
193,1,"""","""","""","""","""",sampler,237,1023092,0.0-6.0-231.0,"""","""","""","""","""","""","""","""","""","""","""","2021-08-13 21:12:50",196.21.159.220,"Mozilla/5.0 (Windows NT 10.0; Win64; x64) AppleWebKit/537.36 (KHTML, like Gecko) Chrome/92.0.4515.131 Safari/537.36",WebKit,Chrome,92.0.4515.131,Windows,10.0,5f461dd6c139dd6b46c7596cbd57cd79
193,1,"""","""","""","""","""",sampler,238,1023092,0.0-6.0-232.0,"""","""","""","""","""","""","""","""","""","""","""","2021-08-13 21:12:50",196.21.159.220,"Mozilla/5.0 (Windows NT 10.0; Win64; x64) AppleWebKit/537.36 (KHTML, like Gecko) Chrome/92.0.4515.131 Safari/537.36",WebKit,Chrome,92.0.4515.131,Windows,10.0,5f461dd6c139dd6b46c7596cbd57cd79
193,1,"""","""","""","""","""",sampler,239,1023094,0.0-6.0-233.0,"""","""","""","""","""","""","""","""","""","""","""","2021-08-13 21:12:50",196.21.159.220,"Mozilla/5.0 (Windows NT 10.0; Win64; x64) AppleWebKit/537.36 (KHTML, like Gecko) Chrome/92.0.4515.131 Safari/537.36",WebKit,Chrome,92.0.4515.131,Windows,10.0,5f461dd6c139dd6b46c7596cbd57cd79
193,1,"""","""","""","""","""",sampler,240,1023094,0.0-6.0-234.0,"""","""","""","""","""","""","""","""","""","""","""","2021-08-13 21:12:50",196.21.159.220,"Mozilla/5.0 (Windows NT 10.0; Win64; x64) AppleWebKit/537.36 (KHTML, like Gecko) Chrome/92.0.4515.131 Safari/537.36",WebKit,Chrome,92.0.4515.131,Windows,10.0,5f461dd6c139dd6b46c7596cbd57cd79
193,1,"""","""","""","""","""",sampler,241,1023095,0.0-6.0-235.0,"""","""","""","""","""","""","""","""","""","""","""","2021-08-13 21:12:50",196.21.159.220,"Mozilla/5.0 (Windows NT 10.0; Win64; x64) AppleWebKit/537.36 (KHTML, like Gecko) Chrome/92.0.4515.131 Safari/537.36",WebKit,Chrome,92.0.4515.131,Windows,10.0,5f461dd6c139dd6b46c7596cbd57cd79
193,1,"""","""","""","""","""",sampler,242,1023095,0.0-6.0-236.0,"""","""","""","""","""","""","""","""","""","""","""","2021-08-13 21:12:50",196.21.159.220,"Mozilla/5.0 (Windows NT 10.0; Win64; x64) AppleWebKit/537.36 (KHTML, like Gecko) Chrome/92.0.4515.131 Safari/537.36",WebKit,Chrome,92.0.4515.131,Windows,10.0,5f461dd6c139dd6b46c7596cbd57cd79
193,1,"""","""","""","""","""",sampler,243,1023096,0.0-6.0-237.0,"""","""","""","""","""","""","""","""","""","""","""","2021-08-13 21:12:50",196.21.159.220,"Mozilla/5.0 (Windows NT 10.0; Win64; x64) AppleWebKit/537.36 (KHTML, like Gecko) Chrome/92.0.4515.131 Safari/537.36",WebKit,Chrome,92.0.4515.131,Windows,10.0,5f461dd6c139dd6b46c7596cbd57cd79
193,1,"""","""","""","""","""",sampler,244,1023096,0.0-6.0-238.0,"""","""","""","""","""","""","""","""","""","""","""","2021-08-13 21:12:50",196.21.159.220,"Mozilla/5.0 (Windows NT 10.0; Win64; x64) AppleWebKit/537.36 (KHTML, like Gecko) Chrome/92.0.4515.131 Safari/537.36",WebKit,Chrome,92.0.4515.131,Windows,10.0,5f461dd6c139dd6b46c7596cbd57cd79
193,1,"""","""","""","""","""",sampler,245,1023098,0.0-6.0-239.0,"""","""","""","""","""","""","""","""","""","""","""","2021-08-13 21:12:50",196.21.159.220,"Mozilla/5.0 (Windows NT 10.0; Win64; x64) AppleWebKit/537.36 (KHTML, like Gecko) Chrome/92.0.4515.131 Safari/537.36",WebKit,Chrome,92.0.4515.131,Windows,10.0,5f461dd6c139dd6b46c7596cbd57cd79
193,1,"""","""","""","""","""",sampler,246,1023100,0.0-6.0-240.0,"""","""","""","""","""","""","""","""","""","""","""","2021-08-13 21:12:50",196.21.159.220,"Mozilla/5.0 (Windows NT 10.0; Win64; x64) AppleWebKit/537.36 (KHTML, like Gecko) Chrome/92.0.4515.131 Safari/537.36",WebKit,Chrome,92.0.4515.131,Windows,10.0,5f461dd6c139dd6b46c7596cbd57cd79
193,1,"""","""","""","""","""",sampler,247,1023100,0.0-6.0-241.0,"""","""","""","""","""","""","""","""","""","""","""","2021-08-13 21:12:50",196.21.159.220,"Mozilla/5.0 (Windows NT 10.0; Win64; x64) AppleWebKit/537.36 (KHTML, like Gecko) Chrome/92.0.4515.131 Safari/537.36",WebKit,Chrome,92.0.4515.131,Windows,10.0,5f461dd6c139dd6b46c7596cbd57cd79
193,1,"""","""","""","""","""",sampler,248,1023101,0.0-6.0-242.0,"""","""","""","""","""","""","""","""","""","""","""","2021-08-13 21:12:50",196.21.159.220,"Mozilla/5.0 (Windows NT 10.0; Win64; x64) AppleWebKit/537.36 (KHTML, like Gecko) Chrome/92.0.4515.131 Safari/537.36",WebKit,Chrome,92.0.4515.131,Windows,10.0,5f461dd6c139dd6b46c7596cbd57cd79
193,1,"""","""","""","""","""",sampler,249,1023101,0.0-6.0-243.0,"""","""","""","""","""","""","""","""","""","""","""","2021-08-13 21:12:50",196.21.159.220,"Mozilla/5.0 (Windows NT 10.0; Win64; x64) AppleWebKit/537.36 (KHTML, like Gecko) Chrome/92.0.4515.131 Safari/537.36",WebKit,Chrome,92.0.4515.131,Windows,10.0,5f461dd6c139dd6b46c7596cbd57cd79
193,1,"""","""","""","""","""",sampler,250,1023102,0.0-6.0-244.0,"""","""","""","""","""","""","""","""","""","""","""","2021-08-13 21:12:50",196.21.159.220,"Mozilla/5.0 (Windows NT 10.0; Win64; x64) AppleWebKit/537.36 (KHTML, like Gecko) Chrome/92.0.4515.131 Safari/537.36",WebKit,Chrome,92.0.4515.131,Windows,10.0,5f461dd6c139dd6b46c7596cbd57cd79
193,1,"""","""","""","""","""",sampler,251,1023103,0.0-6.0-245.0,"""","""","""","""","""","""","""","""","""","""","""","2021-08-13 21:12:50",196.21.159.220,"Mozilla/5.0 (Windows NT 10.0; Win64; x64) AppleWebKit/537.36 (KHTML, like Gecko) Chrome/92.0.4515.131 Safari/537.36",WebKit,Chrome,92.0.4515.131,Windows,10.0,5f461dd6c139dd6b46c7596cbd57cd79
193,1,"""","""","""","""","""",sampler,252,1023103,0.0-6.0-246.0,"""","""","""","""","""","""","""","""","""","""","""","2021-08-13 21:12:50",196.21.159.220,"Mozilla/5.0 (Windows NT 10.0; Win64; x64) AppleWebKit/537.36 (KHTML, like Gecko) Chrome/92.0.4515.131 Safari/537.36",WebKit,Chrome,92.0.4515.131,Windows,10.0,5f461dd6c139dd6b46c7596cbd57cd79
193,1,"""","""","""","""","""",sampler,253,1023104,0.0-6.0-247.0,"""","""","""","""","""","""","""","""","""","""","""","2021-08-13 21:12:50",196.21.159.220,"Mozilla/5.0 (Windows NT 10.0; Win64; x64) AppleWebKit/537.36 (KHTML, like Gecko) Chrome/92.0.4515.131 Safari/537.36",WebKit,Chrome,92.0.4515.131,Windows,10.0,5f461dd6c139dd6b46c7596cbd57cd79
193,1,"""","""","""","""","""",sampler,254,1023104,0.0-6.0-248.0,"""","""","""","""","""","""","""","""","""","""","""","2021-08-13 21:12:50",196.21.159.220,"Mozilla/5.0 (Windows NT 10.0; Win64; x64) AppleWebKit/537.36 (KHTML, like Gecko) Chrome/92.0.4515.131 Safari/537.36",WebKit,Chrome,92.0.4515.131,Windows,10.0,5f461dd6c139dd6b46c7596cbd57cd79
193,1,"""","""","""","""","""",sampler,255,1023105,0.0-6.0-249.0,"""","""","""","""","""","""","""","""","""","""","""","2021-08-13 21:12:50",196.21.159.220,"Mozilla/5.0 (Windows NT 10.0; Win64; x64) AppleWebKit/537.36 (KHTML, like Gecko) Chrome/92.0.4515.131 Safari/537.36",WebKit,Chrome,92.0.4515.131,Windows,10.0,5f461dd6c139dd6b46c7596cbd57cd79
193,1,"""","""","""","""","""",sampler,256,1023105,0.0-6.0-250.0,"""","""","""","""","""","""","""","""","""","""","""","2021-08-13 21:12:50",196.21.159.220,"Mozilla/5.0 (Windows NT 10.0; Win64; x64) AppleWebKit/537.36 (KHTML, like Gecko) Chrome/92.0.4515.131 Safari/537.36",WebKit,Chrome,92.0.4515.131,Windows,10.0,5f461dd6c139dd6b46c7596cbd57cd79
193,1,"""","""","""","""","""",sampler,257,1023106,0.0-6.0-251.0,"""","""","""","""","""","""","""","""","""","""","""","2021-08-13 21:12:50",196.21.159.220,"Mozilla/5.0 (Windows NT 10.0; Win64; x64) AppleWebKit/537.36 (KHTML, like Gecko) Chrome/92.0.4515.131 Safari/537.36",WebKit,Chrome,92.0.4515.131,Windows,10.0,5f461dd6c139dd6b46c7596cbd57cd79
193,1,"""","""","""","""","""",sampler,258,1023107,0.0-6.0-252.0,"""","""","""","""","""","""","""","""","""","""","""","2021-08-13 21:12:50",196.21.159.220,"Mozilla/5.0 (Windows NT 10.0; Win64; x64) AppleWebKit/537.36 (KHTML, like Gecko) Chrome/92.0.4515.131 Safari/537.36",WebKit,Chrome,92.0.4515.131,Windows,10.0,5f461dd6c139dd6b46c7596cbd57cd79
193,1,"""","""","""","""","""",sampler,259,1023107,0.0-6.0-253.0,"""","""","""","""","""","""","""","""","""","""","""","2021-08-13 21:12:50",196.21.159.220,"Mozilla/5.0 (Windows NT 10.0; Win64; x64) AppleWebKit/537.36 (KHTML, like Gecko) Chrome/92.0.4515.131 Safari/537.36",WebKit,Chrome,92.0.4515.131,Windows,10.0,5f461dd6c139dd6b46c7596cbd57cd79
193,1,"""","""","""","""","""",sampler,260,1023108,0.0-6.0-254.0,"""","""","""","""","""","""","""","""","""","""","""","2021-08-13 21:12:50",196.21.159.220,"Mozilla/5.0 (Windows NT 10.0; Win64; x64) AppleWebKit/537.36 (KHTML, like Gecko) Chrome/92.0.4515.131 Safari/537.36",WebKit,Chrome,92.0.4515.131,Windows,10.0,5f461dd6c139dd6b46c7596cbd57cd79
193,1,"""","""","""","""","""",sampler,261,1023108,0.0-6.0-255.0,"""","""","""","""","""","""","""","""","""","""","""","2021-08-13 21:12:50",196.21.159.220,"Mozilla/5.0 (Windows NT 10.0; Win64; x64) AppleWebKit/537.36 (KHTML, like Gecko) Chrome/92.0.4515.131 Safari/537.36",WebKit,Chrome,92.0.4515.131,Windows,10.0,5f461dd6c139dd6b46c7596cbd57cd79
193,1,"""","""","""","""","""",sampler,262,1023110,0.0-6.0-256.0,"""","""","""","""","""","""","""","""","""","""","""","2021-08-13 21:12:50",196.21.159.220,"Mozilla/5.0 (Windows NT 10.0; Win64; x64) AppleWebKit/537.36 (KHTML, like Gecko) Chrome/92.0.4515.131 Safari/537.36",WebKit,Chrome,92.0.4515.131,Windows,10.0,5f461dd6c139dd6b46c7596cbd57cd79
193,1,"""","""","""","""","""",sampler,263,1023111,0.0-6.0-257.0,"""","""","""","""","""","""","""","""","""","""","""","2021-08-13 21:12:50",196.21.159.220,"Mozilla/5.0 (Windows NT 10.0; Win64; x64) AppleWebKit/537.36 (KHTML, like Gecko) Chrome/92.0.4515.131 Safari/537.36",WebKit,Chrome,92.0.4515.131,Windows,10.0,5f461dd6c139dd6b46c7596cbd57cd79
193,1,"""","""","""","""","""",sampler,264,1023112,0.0-6.0-258.0,"""","""","""","""","""","""","""","""","""","""","""","2021-08-13 21:12:50",196.21.159.220,"Mozilla/5.0 (Windows NT 10.0; Win64; x64) AppleWebKit/537.36 (KHTML, like Gecko) Chrome/92.0.4515.131 Safari/537.36",WebKit,Chrome,92.0.4515.131,Windows,10.0,5f461dd6c139dd6b46c7596cbd57cd79
193,1,"""","""","""","""","""",sampler,265,1023112,0.0-6.0-259.0,"""","""","""","""","""","""","""","""","""","""","""","2021-08-13 21:12:50",196.21.159.220,"Mozilla/5.0 (Windows NT 10.0; Win64; x64) AppleWebKit/537.36 (KHTML, like Gecko) Chrome/92.0.4515.131 Safari/537.36",WebKit,Chrome,92.0.4515.131,Windows,10.0,5f461dd6c139dd6b46c7596cbd57cd79
193,1,"""","""","""","""","""",sampler,266,1023113,0.0-6.0-260.0,"""","""","""","""","""","""","""","""","""","""","""","2021-08-13 21:12:50",196.21.159.220,"Mozilla/5.0 (Windows NT 10.0; Win64; x64) AppleWebKit/537.36 (KHTML, like Gecko) Chrome/92.0.4515.131 Safari/537.36",WebKit,Chrome,92.0.4515.131,Windows,10.0,5f461dd6c139dd6b46c7596cbd57cd79
193,1,"""","""","""","""","""",sampler,267,1023114,0.0-6.0-261.0,"""","""","""","""","""","""","""","""","""","""","""","2021-08-13 21:12:50",196.21.159.220,"Mozilla/5.0 (Windows NT 10.0; Win64; x64) AppleWebKit/537.36 (KHTML, like Gecko) Chrome/92.0.4515.131 Safari/537.36",WebKit,Chrome,92.0.4515.131,Windows,10.0,5f461dd6c139dd6b46c7596cbd57cd79
193,1,"""","""","""","""","""",sampler,268,1023115,0.0-6.0-262.0,"""","""","""","""","""","""","""","""","""","""","""","2021-08-13 21:12:50",196.21.159.220,"Mozilla/5.0 (Windows NT 10.0; Win64; x64) AppleWebKit/537.36 (KHTML, like Gecko) Chrome/92.0.4515.131 Safari/537.36",WebKit,Chrome,92.0.4515.131,Windows,10.0,5f461dd6c139dd6b46c7596cbd57cd79
193,1,"""","""","""","""","""",sampler,269,1023115,0.0-6.0-263.0,"""","""","""","""","""","""","""","""","""","""","""","2021-08-13 21:12:50",196.21.159.220,"Mozilla/5.0 (Windows NT 10.0; Win64; x64) AppleWebKit/537.36 (KHTML, like Gecko) Chrome/92.0.4515.131 Safari/537.36",WebKit,Chrome,92.0.4515.131,Windows,10.0,5f461dd6c139dd6b46c7596cbd57cd79
193,1,"""","""","""","""","""",sampler,270,1023116,0.0-6.0-264.0,"""","""","""","""","""","""","""","""","""","""","""","2021-08-13 21:12:50",196.21.159.220,"Mozilla/5.0 (Windows NT 10.0; Win64; x64) AppleWebKit/537.36 (KHTML, like Gecko) Chrome/92.0.4515.131 Safari/537.36",WebKit,Chrome,92.0.4515.131,Windows,10.0,5f461dd6c139dd6b46c7596cbd57cd79
193,1,"""","""","""","""","""",sampler,271,1023116,0.0-6.0-265.0,"""","""","""","""","""","""","""","""","""","""","""","2021-08-13 21:12:50",196.21.159.220,"Mozilla/5.0 (Windows NT 10.0; Win64; x64) AppleWebKit/537.36 (KHTML, like Gecko) Chrome/92.0.4515.131 Safari/537.36",WebKit,Chrome,92.0.4515.131,Windows,10.0,5f461dd6c139dd6b46c7596cbd57cd79
193,1,"""","""","""","""","""",sampler,272,1023117,0.0-6.0-266.0,"""","""","""","""","""","""","""","""","""","""","""","2021-08-13 21:12:50",196.21.159.220,"Mozilla/5.0 (Windows NT 10.0; Win64; x64) AppleWebKit/537.36 (KHTML, like Gecko) Chrome/92.0.4515.131 Safari/537.36",WebKit,Chrome,92.0.4515.131,Windows,10.0,5f461dd6c139dd6b46c7596cbd57cd79
193,1,"""","""","""","""","""",sampler,273,1023118,0.0-6.0-267.0,"""","""","""","""","""","""","""","""","""","""","""","2021-08-13 21:12:50",196.21.159.220,"Mozilla/5.0 (Windows NT 10.0; Win64; x64) AppleWebKit/537.36 (KHTML, like Gecko) Chrome/92.0.4515.131 Safari/537.36",WebKit,Chrome,92.0.4515.131,Windows,10.0,5f461dd6c139dd6b46c7596cbd57cd79
193,1,"""","""","""","""","""",sampler,274,1023118,0.0-6.0-268.0,"""","""","""","""","""","""","""","""","""","""","""","2021-08-13 21:12:50",196.21.159.220,"Mozilla/5.0 (Windows NT 10.0; Win64; x64) AppleWebKit/537.36 (KHTML, like Gecko) Chrome/92.0.4515.131 Safari/537.36",WebKit,Chrome,92.0.4515.131,Windows,10.0,5f461dd6c139dd6b46c7596cbd57cd79
193,1,"""","""","""","""","""",sampler,275,1023119,0.0-6.0-269.0,"""","""","""","""","""","""","""","""","""","""","""","2021-08-13 21:12:50",196.21.159.220,"Mozilla/5.0 (Windows NT 10.0; Win64; x64) AppleWebKit/537.36 (KHTML, like Gecko) Chrome/92.0.4515.131 Safari/537.36",WebKit,Chrome,92.0.4515.131,Windows,10.0,5f461dd6c139dd6b46c7596cbd57cd79
193,1,"""","""","""","""","""",sampler,276,1023119,0.0-6.0-270.0,"""","""","""","""","""","""","""","""","""","""","""","2021-08-13 21:12:50",196.21.159.220,"Mozilla/5.0 (Windows NT 10.0; Win64; x64) AppleWebKit/537.36 (KHTML, like Gecko) Chrome/92.0.4515.131 Safari/537.36",WebKit,Chrome,92.0.4515.131,Windows,10.0,5f461dd6c139dd6b46c7596cbd57cd79
193,1,"""","""","""","""","""",sampler,277,1023120,0.0-6.0-271.0,"""","""","""","""","""","""","""","""","""","""","""","2021-08-13 21:12:50",196.21.159.220,"Mozilla/5.0 (Windows NT 10.0; Win64; x64) AppleWebKit/537.36 (KHTML, like Gecko) Chrome/92.0.4515.131 Safari/537.36",WebKit,Chrome,92.0.4515.131,Windows,10.0,5f461dd6c139dd6b46c7596cbd57cd79
193,1,"""","""","""","""","""",sampler,278,1023120,0.0-6.0-272.0,"""","""","""","""","""","""","""","""","""","""","""","2021-08-13 21:12:50",196.21.159.220,"Mozilla/5.0 (Windows NT 10.0; Win64; x64) AppleWebKit/537.36 (KHTML, like Gecko) Chrome/92.0.4515.131 Safari/537.36",WebKit,Chrome,92.0.4515.131,Windows,10.0,5f461dd6c139dd6b46c7596cbd57cd79
193,1,"""","""","""","""","""",sampler,279,1023121,0.0-6.0-273.0,"""","""","""","""","""","""","""","""","""","""","""","2021-08-13 21:12:50",196.21.159.220,"Mozilla/5.0 (Windows NT 10.0; Win64; x64) AppleWebKit/537.36 (KHTML, like Gecko) Chrome/92.0.4515.131 Safari/537.36",WebKit,Chrome,92.0.4515.131,Windows,10.0,5f461dd6c139dd6b46c7596cbd57cd79
193,1,"""","""","""","""","""",sampler,280,1023121,0.0-6.0-274.0,"""","""","""","""","""","""","""","""","""","""","""","2021-08-13 21:12:50",196.21.159.220,"Mozilla/5.0 (Windows NT 10.0; Win64; x64) AppleWebKit/537.36 (KHTML, like Gecko) Chrome/92.0.4515.131 Safari/537.36",WebKit,Chrome,92.0.4515.131,Windows,10.0,5f461dd6c139dd6b46c7596cbd57cd79
193,1,"""","""","""","""","""",sampler,281,1023122,0.0-6.0-275.0,"""","""","""","""","""","""","""","""","""","""","""","2021-08-13 21:12:50",196.21.159.220,"Mozilla/5.0 (Windows NT 10.0; Win64; x64) AppleWebKit/537.36 (KHTML, like Gecko) Chrome/92.0.4515.131 Safari/537.36",WebKit,Chrome,92.0.4515.131,Windows,10.0,5f461dd6c139dd6b46c7596cbd57cd79
193,1,"""","""","""","""","""",sampler,282,1023123,0.0-6.0-276.0,"""","""","""","""","""","""","""","""","""","""","""","2021-08-13 21:12:50",196.21.159.220,"Mozilla/5.0 (Windows NT 10.0; Win64; x64) AppleWebKit/537.36 (KHTML, like Gecko) Chrome/92.0.4515.131 Safari/537.36",WebKit,Chrome,92.0.4515.131,Windows,10.0,5f461dd6c139dd6b46c7596cbd57cd79
